Sample ID:	C:\MCC\MCC Cal\Test\PP_MCC_30K_min_210928_R1.txt
Sample Weight (mg):	5
Heating Rate (C/s):	0.5
Combustor Temp (C):	900
N2 Flow Rate (cc/min):	80
O2 Flow Rate (cc/min):	20
Calibration File:	C:\MCC\MCC Cal\Coeff1 JN10440_30_210304.txt.txt
T Correction Coefficients:	0	1.024463	0
Time Shift (s):	14
*
Time (s)	Temperature (C)	N2 flow rate (cc/min)	O2 flow rate (cc/min)	Flow Rate (cc/min)	Oxygen (%)	HRR (W/g)	Heating rate (C/s)
0.000	111.288	80.005	19.995	100.171	20.027	0.125	-0.026
0.499	111.283	80.006	19.995	100.171	20.024	0.309	-0.007
0.999	111.292	80.006	19.995	100.171	20.026	0.189	-0.001
1.499	111.267	80.006	19.995	100.171	20.026	0.172	-0.006
1.999	111.291	80.007	19.995	100.171	20.027	0.111	-0.009
2.499	111.256	80.005	19.995	100.170	20.028	0.075	-0.006
2.999	111.252	80.005	19.994	100.166	20.026	0.217	-0.025
3.499	111.249	80.007	19.995	100.164	20.025	0.234	-0.023
3.999	111.212	80.006	19.995	100.159	20.025	0.242	-0.024
4.499	111.237	80.006	19.994	100.158	20.026	0.179	-0.026
4.999	111.239	80.006	19.995	100.157	20.028	0.108	0.007
5.499	111.254	80.007	19.994	100.156	20.028	0.084	0.022
6.000	111.225	80.007	19.995	100.158	20.029	0.026	0.002
6.500	111.254	80.006	19.994	100.164	20.028	0.084	-0.007
6.999	111.235	80.005	19.994	100.166	20.029	0.034	0.005
7.500	111.243	80.006	19.995	100.170	20.027	0.159	-0.001
8.000	111.200	80.005	19.995	100.174	20.026	0.229	-0.023
8.499	111.228	80.005	19.995	100.176	20.027	0.130	-0.025
8.999	111.224	80.007	19.995	100.178	20.025	0.242	0.004
9.499	111.213	80.005	19.994	100.182	20.024	0.345	0.004
9.999	111.222	80.007	19.995	100.190	20.025	0.265	-0.008
10.499	111.251	80.006	19.995	100.201	20.026	0.215	0.018
10.999	111.237	80.006	19.996	100.209	20.023	0.412	0.027
11.499	111.219	80.006	19.994	100.215	20.021	0.512	-0.008
11.999	111.228	80.006	19.995	100.222	20.019	0.645	-0.020
12.499	111.203	80.006	19.995	100.224	20.019	0.616	-0.013
12.999	111.231	80.005	19.995	100.223	20.019	0.651	-0.007
13.499	111.206	80.006	19.995	100.229	20.021	0.538	0.003
13.999	111.236	80.005	19.994	100.237	20.017	0.775	0.005
14.500	111.266	80.005	19.995	100.243	20.017	0.748	0.033
15.000	111.277	80.006	19.995	100.248	20.014	0.975	0.050
15.499	111.285	80.005	19.996	100.254	20.014	0.965	0.030
15.999	111.294	80.006	19.995	100.255	20.013	0.992	0.018
16.499	111.282	80.005	19.995	100.255	20.015	0.878	0.007
17.000	111.340	80.004	19.996	100.252	20.012	1.105	0.022
17.500	111.346	80.005	19.994	100.251	20.012	1.065	0.055
17.999	111.392	80.004	19.996	100.253	20.010	1.228	0.058
18.499	111.365	80.005	19.996	100.259	20.009	1.240	0.035
18.999	111.459	80.005	19.995	100.267	20.013	0.985	0.043
19.499	111.411	80.005	19.994	100.273	20.011	1.149	0.056
19.999	111.459	80.004	19.995	100.275	20.008	1.325	0.023
20.499	111.486	80.004	19.996	100.274	20.009	1.281	0.038
20.999	111.518	80.005	19.995	100.270	20.009	1.235	0.067
21.500	111.531	80.004	19.996	100.266	20.012	1.047	0.052
22.000	111.582	80.005	19.997	100.263	20.010	1.182	0.055
22.499	111.619	80.005	19.995	100.264	20.012	1.057	0.076
23.000	111.609	80.003	19.995	100.267	20.011	1.155	0.057
23.500	111.631	80.005	19.994	100.266	20.013	1.008	0.020
24.000	111.747	80.005	19.996	100.264	20.010	1.184	0.075
24.500	111.716	80.005	19.995	100.263	20.009	1.261	0.111
24.999	111.742	80.005	19.996	100.263	20.009	1.239	0.040
25.499	111.751	80.006	19.995	100.262	20.006	1.425	0.015
25.999	111.883	80.006	19.994	100.262	20.008	1.343	0.089
26.499	111.923	80.005	19.996	100.261	20.008	1.329	0.157
26.999	111.949	80.006	19.995	100.261	20.008	1.360	0.119
27.499	111.972	80.006	19.995	100.260	20.012	1.092	0.058
27.999	111.963	80.006	19.995	100.257	20.004	1.565	0.032
28.499	112.032	80.007	19.995	100.256	20.005	1.498	0.037
28.999	112.050	80.006	19.995	100.259	20.007	1.418	0.073
29.499	112.076	80.006	19.995	100.266	20.004	1.565	0.065
29.999	112.203	80.007	19.995	100.274	20.003	1.663	0.098
30.499	112.198	80.006	19.995	100.282	20.005	1.538	0.137
30.999	112.236	80.006	19.994	100.290	20.003	1.628	0.077
31.499	112.306	80.007	19.994	100.295	20.003	1.622	0.071
31.999	112.342	80.005	19.995	100.296	20.004	1.562	0.108
32.499	112.406	80.006	19.994	100.296	20.003	1.645	0.103
32.999	112.462	80.005	19.995	100.295	20.004	1.584	0.110
33.499	112.493	80.006	19.995	100.296	20.003	1.616	0.104
33.999	112.525	80.007	19.994	100.298	20.001	1.758	0.075
34.499	112.584	80.007	19.994	100.303	19.998	1.927	0.076
34.999	112.647	80.006	19.996	100.310	20.001	1.769	0.106
35.499	112.720	80.006	19.996	100.318	20.003	1.653	0.129
35.999	112.792	80.006	19.995	100.324	20.001	1.748	0.141
36.499	112.813	80.006	19.997	100.330	19.998	1.964	0.119
36.999	112.899	80.007	19.994	100.332	19.999	1.902	0.100
37.499	112.936	80.006	19.996	100.333	19.998	1.962	0.115
37.999	112.987	80.006	19.997	100.332	19.998	1.964	0.106
38.499	113.104	80.005	19.996	100.331	19.999	1.918	0.128
38.999	113.148	80.005	19.995	100.331	19.998	1.974	0.164
39.500	113.214	80.006	19.995	100.331	19.998	1.931	0.135
40.000	113.262	80.006	19.996	100.331	19.998	1.943	0.112
40.500	113.349	80.005	19.995	100.332	20.001	1.798	0.124
40.999	113.441	80.006	19.995	100.334	19.999	1.916	0.157
41.499	113.524	80.004	19.995	100.334	19.999	1.921	0.177
41.999	113.596	80.006	19.995	100.334	19.997	2.008	0.166
42.500	113.653	80.004	19.995	100.334	19.998	1.952	0.142
43.000	113.741	80.005	19.995	100.334	19.997	2.031	0.137
43.499	113.827	80.004	19.996	100.334	19.996	2.099	0.160
43.999	113.908	80.004	19.996	100.335	19.997	1.988	0.170
44.500	114.012	80.004	19.995	100.336	19.998	1.957	0.176
45.000	114.088	80.005	19.996	100.337	19.996	2.085	0.182
45.500	114.170	80.005	19.995	100.337	19.998	1.959	0.169
45.999	114.283	80.005	19.996	100.340	19.997	2.024	0.176
46.499	114.346	80.005	19.995	100.347	19.995	2.140	0.186
46.999	114.428	80.005	19.995	100.351	19.995	2.147	0.161
47.499	114.534	80.005	19.996	100.355	19.997	1.988	0.167
47.999	114.639	80.004	19.994	100.357	19.995	2.167	0.199
48.499	114.726	80.005	19.996	100.357	19.994	2.209	0.201
48.999	114.841	80.005	19.995	100.354	19.992	2.306	0.197
49.499	114.921	80.007	19.996	100.353	19.994	2.202	0.199
49.999	115.011	80.006	19.996	100.354	19.994	2.178	0.183
50.499	115.105	80.006	19.996	100.357	19.995	2.116	0.177
50.999	115.208	80.006	19.997	100.361	19.992	2.333	0.190
51.499	115.286	80.008	19.996	100.365	19.992	2.350	0.189
51.999	115.412	80.006	19.996	100.367	19.993	2.292	0.192
52.499	115.500	80.007	19.996	100.369	19.993	2.291	0.209
52.999	115.651	80.005	19.995	100.370	19.991	2.408	0.227
53.499	115.734	80.007	19.996	100.370	19.989	2.489	0.237
53.999	115.872	80.006	19.995	100.369	19.988	2.554	0.228
54.499	115.959	80.007	19.995	100.369	19.991	2.410	0.223
54.999	116.076	80.007	19.996	100.368	19.991	2.410	0.215
55.499	116.181	80.007	19.995	100.367	19.990	2.432	0.213
55.999	116.303	80.008	19.995	100.366	19.992	2.355	0.224
56.500	116.402	80.008	19.995	100.367	19.993	2.290	0.224
57.000	116.495	80.008	19.996	100.367	19.991	2.393	0.207
57.499	116.622	80.007	19.995	100.367	19.992	2.359	0.206
57.999	116.732	80.008	19.995	100.369	19.990	2.451	0.228
58.499	116.864	80.009	19.995	100.372	19.989	2.549	0.239
58.999	117.019	80.008	19.995	100.374	19.990	2.487	0.264
59.499	117.146	80.009	19.995	100.374	19.989	2.518	0.284
60.000	117.247	80.008	19.993	100.378	19.990	2.487	0.255
60.500	117.381	80.006	19.995	100.378	19.991	2.390	0.232
60.999	117.501	80.008	19.996	100.376	19.991	2.400	0.244
61.499	117.654	80.007	19.996	100.374	19.990	2.480	0.264
61.999	117.760	80.007	19.995	100.374	19.992	2.330	0.266
62.499	117.891	80.007	19.994	100.371	19.994	2.207	0.248
62.999	118.050	80.007	19.995	100.371	19.991	2.376	0.264
63.499	118.176	80.007	19.995	100.371	19.989	2.513	0.288
64.000	118.351	80.007	19.996	100.370	19.990	2.434	0.293
64.500	118.432	80.006	19.995	100.371	19.991	2.420	0.278
64.999	118.559	80.006	19.995	100.371	19.995	2.162	0.232
65.500	118.733	80.007	19.995	100.370	19.992	2.321	0.255
66.000	118.895	80.008	19.996	100.370	19.992	2.314	0.319
66.499	118.992	80.006	19.996	100.370	19.994	2.236	0.298
66.999	119.131	80.005	19.994	100.370	19.995	2.173	0.247
67.499	119.275	80.005	19.996	100.370	19.992	2.361	0.259
67.999	119.414	80.005	19.994	100.371	19.990	2.451	0.283
68.500	119.547	80.005	19.996	100.370	19.991	2.364	0.278
69.000	119.675	80.005	19.994	100.369	19.991	2.388	0.267
69.500	119.829	80.005	19.996	100.368	19.991	2.412	0.271
69.999	119.977	80.006	19.996	100.368	19.994	2.210	0.292
70.499	120.109	80.005	19.995	100.368	19.991	2.409	0.291
70.999	120.294	80.005	19.994	100.367	19.989	2.516	0.299
71.499	120.449	80.005	19.996	100.367	19.992	2.352	0.328
71.999	120.629	80.005	19.995	100.367	19.991	2.371	0.337
72.499	120.719	80.005	19.996	100.367	19.991	2.400	0.302
72.999	120.896	80.005	19.995	100.367	19.992	2.335	0.269
73.500	121.037	80.006	19.995	100.369	19.989	2.542	0.293
74.000	121.214	80.006	19.995	100.370	19.991	2.405	0.318
74.500	121.358	80.006	19.996	100.371	19.989	2.510	0.319
74.999	121.541	80.005	19.995	100.371	19.989	2.542	0.324
75.499	121.681	80.006	19.994	100.371	19.990	2.483	0.325
75.999	121.836	80.005	19.995	100.371	19.989	2.510	0.309
76.499	121.997	80.005	19.994	100.371	19.990	2.450	0.306
76.999	122.160	80.006	19.996	100.371	19.991	2.423	0.320
77.500	122.307	80.005	19.996	100.370	19.990	2.483	0.317
78.000	122.476	80.005	19.996	100.370	19.987	2.621	0.313
78.499	122.633	80.005	19.995	100.370	19.990	2.462	0.321
78.999	122.809	80.005	19.995	100.370	19.992	2.332	0.329
79.499	122.973	80.006	19.996	100.371	19.991	2.392	0.337
79.999	123.154	80.006	19.995	100.373	19.990	2.445	0.343
80.499	123.308	80.007	19.995	100.374	19.987	2.614	0.340
80.999	123.467	80.005	19.996	100.374	19.991	2.414	0.324
81.499	123.618	80.007	19.996	100.374	19.988	2.568	0.312
81.999	123.778	80.005	19.995	100.374	19.989	2.514	0.311
82.499	123.938	80.006	19.996	100.372	19.988	2.604	0.316
82.999	124.104	80.005	19.994	100.372	19.991	2.409	0.323
83.499	124.253	80.006	19.995	100.374	19.987	2.626	0.320
83.999	124.399	80.004	19.995	100.378	19.989	2.517	0.305
84.499	124.595	80.006	19.994	100.383	19.983	2.878	0.319
84.999	124.755	80.008	19.995	100.385	19.988	2.579	0.349
85.499	124.889	80.006	19.995	100.390	19.989	2.532	0.325
85.999	125.103	80.006	19.995	100.394	19.988	2.611	0.321
86.500	125.273	80.005	19.996	100.399	19.987	2.621	0.366
87.000	125.434	80.006	19.995	100.402	19.986	2.732	0.357
87.500	125.608	80.007	19.995	100.404	19.982	2.951	0.333
88.000	125.799	80.005	19.994	100.399	19.985	2.748	0.351
88.499	125.951	80.005	19.994	100.395	19.987	2.626	0.354
88.999	126.141	80.005	19.995	100.389	19.984	2.819	0.342
89.499	126.337	80.005	19.994	100.382	19.985	2.785	0.364
89.999	126.486	80.004	19.994	100.379	19.986	2.712	0.366
90.499	126.665	80.007	19.995	100.389	19.985	2.776	0.337
91.000	126.828	80.007	19.995	100.396	19.988	2.611	0.335
91.500	127.020	80.005	19.996	100.400	19.988	2.606	0.348
92.000	127.221	80.005	19.994	100.407	19.987	2.625	0.374
92.500	127.377	80.005	19.995	100.412	19.986	2.700	0.375
92.999	127.559	80.005	19.995	100.408	19.987	2.659	0.348
93.499	127.739	80.004	19.995	100.407	19.985	2.741	0.350
93.999	127.984	80.005	19.995	100.406	19.986	2.731	0.394
94.499	128.125	80.006	19.994	100.406	19.983	2.881	0.405
94.999	128.314	80.006	19.994	100.408	19.983	2.898	0.358
95.499	128.501	80.005	19.995	100.409	19.985	2.797	0.353
95.999	128.703	80.004	19.995	100.409	19.987	2.621	0.383
96.499	128.913	80.005	19.995	100.408	19.984	2.828	0.401
96.999	129.079	80.005	19.995	100.408	19.989	2.535	0.394
97.499	129.269	80.005	19.995	100.405	19.986	2.720	0.366
97.999	129.462	80.005	19.994	100.403	19.984	2.809	0.370
98.499	129.653	80.004	19.995	100.402	19.986	2.705	0.384
98.999	129.855	80.004	19.995	100.403	19.984	2.852	0.388
99.499	130.053	80.004	19.996	100.401	19.987	2.647	0.396
99.999	130.222	80.004	19.995	100.399	19.984	2.830	0.383
100.499	130.434	80.005	19.996	100.395	19.982	2.943	0.373
100.999	130.584	80.004	19.995	100.393	19.984	2.816	0.372
101.499	130.775	80.003	19.996	100.389	19.985	2.765	0.352
101.999	130.987	80.004	19.994	100.390	19.984	2.862	0.372
102.500	131.166	80.003	19.996	100.394	19.982	2.929	0.397
103.000	131.409	80.004	19.994	100.400	19.982	2.955	0.407
103.500	131.596	80.004	19.996	100.405	19.982	2.931	0.426
103.999	131.798	80.004	19.995	100.409	19.984	2.845	0.410
104.499	132.003	80.006	19.996	100.406	19.986	2.697	0.398
104.999	132.189	80.003	19.995	100.405	19.983	2.874	0.399
105.499	132.399	80.005	19.995	100.402	19.981	3.016	0.393
105.999	132.603	80.006	19.995	100.397	19.982	2.968	0.405
106.499	132.793	80.005	19.996	100.391	19.983	2.920	0.404
106.999	132.981	80.005	19.996	100.390	19.983	2.898	0.386
107.500	133.204	80.005	19.996	100.386	19.984	2.837	0.395
108.000	133.413	80.006	19.995	100.386	19.984	2.808	0.422
108.499	133.592	80.006	19.995	100.391	19.984	2.808	0.410
108.999	133.786	80.005	19.995	100.396	19.985	2.780	0.380
109.499	134.032	80.007	19.996	100.402	19.983	2.866	0.406
109.999	134.202	80.006	19.995	100.406	19.983	2.890	0.428
110.499	134.410	80.007	19.995	100.407	19.982	2.980	0.397
111.000	134.625	80.006	19.996	100.404	19.984	2.850	0.400
111.500	134.853	80.006	19.995	100.405	19.982	2.975	0.433
111.999	135.048	80.006	19.995	100.405	19.983	2.883	0.433
112.499	135.224	80.007	19.995	100.404	19.985	2.782	0.397
112.999	135.448	80.007	19.995	100.406	19.985	2.787	0.385
113.499	135.685	80.007	19.995	100.409	19.983	2.923	0.430
113.999	135.853	80.006	19.995	100.408	19.984	2.804	0.433
114.499	136.058	80.007	19.995	100.408	19.982	2.956	0.389
114.999	136.292	80.007	19.996	100.407	19.981	2.994	0.406
115.499	136.476	80.007	19.995	100.406	19.984	2.857	0.429
115.999	136.678	80.006	19.996	100.405	19.984	2.814	0.402
116.499	136.956	80.007	19.995	100.401	19.982	2.984	0.433
116.999	137.168	80.007	19.996	100.396	19.982	2.982	0.486
117.499	137.336	80.007	19.996	100.397	19.983	2.922	0.435
117.999	137.559	80.006	19.995	100.399	19.984	2.804	0.386
118.499	137.770	80.007	19.997	100.399	19.985	2.756	0.412
118.999	137.991	80.006	19.996	100.402	19.984	2.838	0.432
119.499	138.206	80.006	19.996	100.406	19.987	2.660	0.434
119.999	138.433	80.006	19.995	100.407	19.987	2.638	0.439
120.500	138.647	80.006	19.996	100.407	19.985	2.756	0.442
121.000	138.915	80.007	19.995	100.407	19.985	2.762	0.462
121.499	139.124	80.006	19.995	100.405	19.986	2.712	0.480
121.999	139.364	80.006	19.996	100.402	19.985	2.772	0.463
122.499	139.558	80.007	19.996	100.400	19.984	2.807	0.441
122.999	139.779	80.006	19.996	100.394	19.983	2.891	0.424
123.499	140.000	80.006	19.996	100.388	19.985	2.783	0.429
123.999	140.222	80.007	19.995	100.387	19.986	2.737	0.443
124.499	140.465	80.008	19.996	100.389	19.987	2.658	0.454
125.000	140.658	80.007	19.996	100.390	19.987	2.638	0.451
125.500	140.865	80.006	19.994	100.396	19.986	2.705	0.418
125.999	141.157	80.006	19.996	100.399	19.987	2.655	0.450
126.499	141.341	80.006	19.996	100.398	19.987	2.635	0.488
126.999	141.563	80.005	19.997	100.397	19.986	2.735	0.441
127.499	141.835	80.006	19.996	100.397	19.985	2.751	0.450
127.999	142.048	80.005	19.995	100.398	19.988	2.600	0.490
128.499	142.283	80.006	19.996	100.399	19.989	2.547	0.467
129.000	142.473	80.006	19.994	100.401	19.987	2.624	0.437
129.500	142.718	80.004	19.995	100.399	19.984	2.834	0.430
130.000	142.993	80.006	19.995	100.398	19.985	2.800	0.477
130.500	143.185	80.006	19.995	100.397	19.987	2.643	0.494
130.999	143.451	80.005	19.996	100.399	19.988	2.561	0.463
131.499	143.708	80.006	19.995	100.403	19.987	2.671	0.490
131.999	143.910	80.007	19.996	100.405	19.985	2.758	0.491
132.500	144.111	80.006	19.995	100.404	19.985	2.770	0.431
133.000	144.355	80.007	19.996	100.398	19.984	2.864	0.424
133.499	144.573	80.006	19.995	100.393	19.987	2.636	0.454
133.999	144.827	80.007	19.995	100.390	19.985	2.766	0.467
134.499	145.081	80.006	19.996	100.388	19.983	2.903	0.490
134.999	145.300	80.007	19.996	100.387	19.984	2.824	0.491
135.499	145.522	80.007	19.996	100.390	19.987	2.653	0.458
135.999	145.755	80.007	19.995	100.391	19.984	2.846	0.448
136.499	145.981	80.007	19.995	100.389	19.983	2.881	0.457
136.999	146.274	80.008	19.996	100.387	19.985	2.765	0.489
137.500	146.474	80.008	19.996	100.388	19.985	2.794	0.506
138.000	146.721	80.007	19.995	100.392	19.983	2.872	0.470
138.499	146.921	80.007	19.997	100.390	19.985	2.778	0.447
138.999	147.171	80.008	19.995	100.388	19.985	2.780	0.449
139.499	147.414	80.008	19.995	100.385	19.987	2.632	0.472
139.999	147.673	80.008	19.996	100.382	19.985	2.785	0.497
140.499	147.899	80.009	19.995	100.380	19.987	2.619	0.493
140.999	148.127	80.007	19.995	100.381	19.983	2.865	0.469
141.499	148.384	80.006	19.996	100.385	19.982	2.940	0.469
141.999	148.576	80.007	19.996	100.390	19.987	2.667	0.467
142.499	148.831	80.006	19.997	100.392	19.986	2.718	0.448
142.999	149.051	80.008	19.996	100.390	19.984	2.836	0.461
143.499	149.327	80.008	19.997	100.391	19.984	2.844	0.485
143.999	149.561	80.006	19.996	100.390	19.983	2.909	0.503
144.499	149.793	80.005	19.996	100.385	19.985	2.740	0.488
144.999	150.001	80.008	19.996	100.381	19.983	2.887	0.453
145.499	150.223	80.006	19.997	100.380	19.987	2.632	0.435
146.000	150.505	80.006	19.995	100.378	19.982	2.932	0.466
146.500	150.711	80.007	19.994	100.378	19.984	2.816	0.496
146.999	150.946	80.006	19.996	100.383	19.986	2.708	0.465
147.500	151.200	80.006	19.997	100.388	19.986	2.725	0.465
148.000	151.430	80.005	19.996	100.390	19.984	2.814	0.487
148.500	151.661	80.005	19.995	100.389	19.985	2.749	0.473
149.000	151.877	80.004	19.996	100.385	19.984	2.822	0.454
149.499	152.127	80.005	19.997	100.382	19.986	2.728	0.456
149.999	152.394	80.006	19.997	100.378	19.986	2.718	0.492
150.499	152.642	80.004	19.995	100.376	19.986	2.720	0.516
150.999	152.875	80.004	19.995	100.373	19.987	2.658	0.498
151.499	153.128	80.003	19.995	100.374	19.987	2.662	0.483
151.999	153.346	80.005	19.995	100.374	19.984	2.810	0.478
152.499	153.603	80.004	19.996	100.378	19.986	2.696	0.473
152.999	153.804	80.004	19.995	100.377	19.986	2.703	0.467
153.499	154.070	80.004	19.995	100.378	19.988	2.592	0.462
153.999	154.286	80.004	19.995	100.379	19.986	2.685	0.475
154.499	154.536	80.006	19.994	100.377	19.987	2.619	0.475
154.999	154.751	80.004	19.995	100.373	19.992	2.361	0.465
155.499	154.999	80.005	19.995	100.373	19.988	2.552	0.463
155.999	155.221	80.003	19.995	100.376	19.985	2.766	0.466
156.499	155.495	80.005	19.994	100.376	19.986	2.732	0.483
156.999	155.712	80.005	19.996	100.377	19.986	2.727	0.493
157.499	155.977	80.005	19.995	100.380	19.985	2.757	0.486
158.000	156.176	80.005	19.994	100.380	19.986	2.680	0.473
158.500	156.433	80.005	19.995	100.382	19.987	2.638	0.460
158.999	156.668	80.004	19.994	100.384	19.985	2.759	0.474
159.499	156.915	80.005	19.995	100.384	19.987	2.672	0.488
160.000	157.169	80.005	19.995	100.382	19.984	2.817	0.491
160.500	157.423	80.006	19.993	100.382	19.985	2.771	0.504
160.999	157.651	80.005	19.994	100.378	19.984	2.860	0.495
161.499	157.933	80.004	19.995	100.377	19.984	2.810	0.496
162.000	158.148	80.003	19.995	100.381	19.983	2.899	0.504
162.500	158.361	80.005	19.995	100.385	19.986	2.737	0.462
163.000	158.615	80.004	19.995	100.384	19.986	2.699	0.447
163.500	158.861	80.005	19.995	100.384	19.985	2.768	0.484
164.000	159.068	80.004	19.995	100.384	19.987	2.675	0.477
164.500	159.337	80.005	19.995	100.380	19.983	2.911	0.464
164.999	159.578	80.005	19.995	100.376	19.985	2.781	0.493
165.499	159.801	80.005	19.995	100.379	19.987	2.656	0.487
165.999	160.077	80.003	19.995	100.380	19.984	2.817	0.482
166.499	160.353	80.005	19.995	100.379	19.988	2.571	0.526
166.999	160.637	80.006	19.995	100.378	19.987	2.650	0.556
167.499	160.807	80.006	19.995	100.379	19.990	2.463	0.507
168.000	161.082	80.005	19.995	100.378	19.990	2.465	0.450
168.500	161.308	80.005	19.995	100.378	19.990	2.479	0.474
168.999	161.558	80.006	19.994	100.377	19.987	2.617	0.488
169.499	161.818	80.005	19.995	100.378	19.987	2.649	0.493
169.999	162.032	80.006	19.996	100.377	19.989	2.547	0.492
170.499	162.289	80.005	19.995	100.375	19.989	2.526	0.473
171.000	162.502	80.006	19.995	100.375	19.993	2.244	0.470
171.500	162.780	80.006	19.994	100.376	19.990	2.449	0.480
171.999	163.001	80.005	19.995	100.376	19.991	2.410	0.495
172.500	163.231	80.005	19.995	100.375	19.993	2.292	0.475
173.000	163.538	80.005	19.995	100.375	19.991	2.398	0.494
173.500	163.748	80.005	19.995	100.378	19.992	2.342	0.527
174.000	164.009	80.005	19.995	100.378	19.988	2.573	0.494
174.500	164.248	80.005	19.995	100.379	19.988	2.595	0.486
174.999	164.481	80.005	19.995	100.379	19.991	2.422	0.486
175.499	164.709	80.008	19.997	100.380	19.990	2.480	0.466
175.999	164.974	80.005	19.997	100.378	19.987	2.661	0.477
176.499	165.230	80.003	19.995	100.377	19.986	2.682	0.507
176.999	165.494	80.005	19.996	100.377	19.987	2.619	0.521
177.499	165.733	80.004	19.995	100.377	19.989	2.521	0.512
178.000	165.975	80.005	19.996	100.378	19.985	2.740	0.492
178.500	166.196	80.005	19.994	100.377	19.986	2.731	0.472
179.000	166.441	80.004	19.995	100.378	19.989	2.547	0.465
179.499	166.709	80.003	19.996	100.377	19.985	2.779	0.489
179.999	166.960	80.004	19.995	100.376	19.985	2.740	0.515
180.499	167.232	80.006	19.995	100.373	19.987	2.665	0.521
180.999	167.473	80.005	19.996	100.372	19.988	2.596	0.518
181.499	167.701	80.005	19.995	100.372	19.986	2.696	0.491
182.000	167.973	80.006	19.996	100.372	19.989	2.509	0.484
182.500	168.191	80.006	19.996	100.372	19.988	2.605	0.495
183.000	168.412	80.006	19.994	100.373	19.988	2.566	0.465
183.499	168.706	80.006	19.995	100.373	19.986	2.711	0.477
183.999	168.905	80.005	19.995	100.373	19.987	2.660	0.503
184.499	169.190	80.005	19.995	100.373	19.988	2.590	0.488
184.999	169.480	80.004	19.995	100.372	19.989	2.506	0.530
185.499	169.690	80.004	19.995	100.372	19.987	2.663	0.538
185.999	169.949	80.006	19.996	100.372	19.989	2.538	0.484
186.499	170.193	80.005	19.995	100.372	19.988	2.601	0.485
186.999	170.459	80.005	19.994	100.372	19.989	2.497	0.506
187.499	170.674	80.005	19.994	100.372	19.989	2.502	0.496
187.999	170.911	80.004	19.995	100.372	19.987	2.665	0.467
188.499	171.129	80.006	19.995	100.371	19.989	2.518	0.453
188.999	171.402	80.005	19.995	100.371	19.991	2.410	0.473
189.499	171.669	80.005	19.994	100.371	19.990	2.483	0.516
189.999	171.876	80.005	19.994	100.371	19.988	2.598	0.507
190.499	172.135	80.005	19.996	100.371	19.988	2.574	0.470
190.999	172.378	80.005	19.995	100.371	19.987	2.615	0.484
191.499	172.610	80.006	19.995	100.371	19.989	2.516	0.488
191.999	172.882	80.005	19.994	100.371	19.988	2.553	0.489
192.500	173.153	80.006	19.994	100.371	19.986	2.704	0.523
193.000	173.417	80.006	19.995	100.371	19.989	2.521	0.539
193.500	173.594	80.006	19.995	100.370	19.989	2.516	0.489
194.000	173.902	80.007	19.995	100.369	19.992	2.352	0.463
194.500	174.123	80.006	19.994	100.369	19.990	2.441	0.507
194.999	174.379	80.006	19.994	100.369	19.992	2.311	0.503
195.499	174.636	80.006	19.995	100.369	19.991	2.410	0.495
195.999	174.874	80.008	19.995	100.369	19.993	2.294	0.504
196.499	175.108	80.008	19.995	100.370	19.990	2.427	0.483
196.999	175.371	80.006	19.995	100.370	19.992	2.300	0.484
197.499	175.602	80.008	19.994	100.367	19.993	2.299	0.496
198.000	175.877	80.007	19.994	100.365	19.991	2.364	0.500
198.500	176.086	80.007	19.995	100.364	19.992	2.312	0.494
198.999	176.360	80.006	19.995	100.360	19.991	2.415	0.483
199.499	176.602	80.007	19.994	100.360	19.990	2.454	0.500
199.999	176.859	80.007	19.994	100.361	19.990	2.470	0.508
200.499	177.070	80.006	19.996	100.361	19.992	2.338	0.484
201.000	177.318	80.007	19.995	100.363	19.993	2.253	0.464
201.500	177.592	80.007	19.995	100.365	19.990	2.484	0.490
201.999	177.832	80.006	19.995	100.364	19.991	2.395	0.517
202.499	178.050	80.007	19.994	100.364	19.993	2.253	0.486
202.999	178.370	80.007	19.995	100.361	19.990	2.430	0.498
203.499	178.612	80.006	19.994	100.358	19.991	2.364	0.550
203.999	178.829	80.007	19.995	100.355	19.989	2.509	0.511
204.499	179.075	80.007	19.995	100.357	19.989	2.545	0.461
205.000	179.321	80.005	19.995	100.358	19.988	2.610	0.478
205.500	179.598	80.007	19.995	100.363	19.990	2.483	0.507
205.999	179.809	80.006	19.996	100.366	19.988	2.565	0.506
206.500	180.095	80.006	19.994	100.367	19.987	2.658	0.493
207.000	180.324	80.005	19.996	100.366	19.988	2.608	0.505
207.500	180.573	80.006	19.997	100.362	19.990	2.459	0.496
208.000	180.813	80.005	19.996	100.358	19.987	2.668	0.484
208.499	181.087	80.004	19.996	100.355	19.989	2.519	0.502
208.999	181.322	80.005	19.996	100.354	19.988	2.611	0.512
209.499	181.598	80.007	19.996	100.355	19.989	2.519	0.510
210.000	181.842	80.007	19.996	100.357	19.991	2.389	0.516
210.500	182.109	80.006	19.996	100.360	19.990	2.447	0.516
210.999	182.373	80.006	19.996	100.363	19.990	2.444	0.521
211.499	182.619	80.006	19.997	100.366	19.995	2.159	0.520
211.999	182.883	80.007	19.997	100.367	19.992	2.307	0.510
212.499	183.099	80.006	19.996	100.368	19.993	2.294	0.495
212.999	183.336	80.005	19.995	100.367	19.991	2.377	0.467
213.499	183.571	80.007	19.995	100.362	19.990	2.456	0.462
213.999	183.837	80.006	19.996	100.356	19.991	2.403	0.486
214.499	184.072	80.007	19.995	100.354	19.990	2.482	0.501
214.999	184.322	80.007	19.996	100.355	19.994	2.212	0.493
215.499	184.548	80.007	19.995	100.356	19.993	2.246	0.481
215.999	184.838	80.006	19.995	100.357	19.994	2.234	0.496
216.499	185.042	80.007	19.995	100.362	19.995	2.143	0.505
216.999	185.299	80.007	19.996	100.363	19.991	2.393	0.478
217.499	185.564	80.007	19.995	100.360	19.992	2.302	0.491
217.999	185.790	80.007	19.995	100.358	19.993	2.265	0.506
218.500	186.083	80.007	19.995	100.358	19.992	2.321	0.505
219.000	186.335	80.007	19.994	100.353	19.991	2.388	0.532
219.499	186.578	80.006	19.995	100.346	19.990	2.449	0.520
219.999	186.818	80.008	19.995	100.345	19.990	2.442	0.489
220.499	187.082	80.008	19.995	100.346	19.992	2.307	0.494
221.000	187.325	80.007	19.994	100.345	19.989	2.517	0.505
221.500	187.559	80.006	19.994	100.349	19.992	2.351	0.492
222.000	187.807	80.006	19.994	100.353	19.993	2.254	0.480
222.499	188.075	80.007	19.994	100.356	19.990	2.457	0.499
222.999	188.291	80.007	19.995	100.358	19.991	2.375	0.500
223.499	188.587	80.007	19.994	100.361	19.990	2.476	0.498
223.999	188.844	80.007	19.994	100.362	19.993	2.291	0.533
224.499	189.099	80.008	19.994	100.363	19.994	2.220	0.533
224.999	189.311	80.008	19.994	100.362	19.993	2.286	0.489
225.499	189.590	80.008	19.995	100.362	19.994	2.216	0.479
225.999	189.828	80.008	19.995	100.357	19.992	2.322	0.504
226.499	190.090	80.006	19.994	100.353	19.991	2.403	0.509
226.999	190.294	80.007	19.994	100.354	19.993	2.242	0.483
227.499	190.554	80.007	19.995	100.357	19.990	2.428	0.465
227.999	190.819	80.008	19.994	100.358	19.995	2.165	0.494
228.499	191.064	80.006	19.995	100.364	19.994	2.196	0.518
228.999	191.287	80.008	19.995	100.369	19.992	2.309	0.489
229.499	191.553	80.006	19.995	100.370	19.993	2.247	0.478
229.999	191.826	80.005	19.995	100.368	19.996	2.088	0.514
230.499	192.056	80.006	19.995	100.361	19.993	2.287	0.522
230.999	192.296	80.004	19.995	100.354	19.996	2.063	0.487
231.499	192.573	80.006	19.995	100.347	19.995	2.153	0.493
231.999	192.772	80.005	19.995	100.340	19.997	1.998	0.496
232.499	193.056	80.005	19.996	100.335	19.995	2.165	0.480
232.999	193.294	80.004	19.996	100.334	19.998	1.969	0.503
233.499	193.523	80.005	19.997	100.333	19.999	1.894	0.495
233.999	193.765	80.004	19.995	100.332	20.001	1.748	0.469
234.499	194.012	80.004	19.996	100.333	20.001	1.777	0.480
234.999	194.271	80.006	19.996	100.335	20.000	1.849	0.497
235.499	194.522	80.004	19.996	100.336	19.999	1.909	0.508
235.999	194.753	80.005	19.996	100.337	19.996	2.089	0.496
236.500	195.020	80.004	19.996	100.338	19.995	2.157	0.490
237.000	195.275	80.004	19.996	100.338	19.999	1.863	0.510
237.499	195.509	80.005	19.995	100.338	19.998	1.924	0.506
238.000	195.779	80.005	19.997	100.338	19.999	1.864	0.497
238.500	196.017	80.004	19.995	100.337	19.998	1.931	0.506
238.999	196.256	80.004	19.995	100.338	20.000	1.815	0.492
239.499	196.486	80.004	19.996	100.339	20.000	1.842	0.473
239.999	196.753	80.004	19.995	100.339	19.999	1.873	0.483
240.499	196.977	80.005	19.995	100.338	20.002	1.722	0.494
240.999	197.187	80.004	19.996	100.343	20.003	1.635	0.463
241.499	197.483	80.004	19.997	100.348	20.001	1.758	0.471
241.999	197.721	80.005	19.996	100.348	19.999	1.888	0.520
242.499	197.982	80.005	19.997	100.349	19.996	2.073	0.516
242.999	198.217	80.005	19.996	100.351	19.997	2.001	0.498
243.499	198.465	80.004	19.996	100.347	20.000	1.839	0.489
243.999	198.763	80.006	19.996	100.346	19.997	2.025	0.514
244.499	198.955	80.004	19.996	100.350	19.998	1.950	0.518
244.999	199.262	80.005	19.995	100.353	19.998	1.938	0.495
245.499	199.493	80.005	19.996	100.358	20.000	1.818	0.519
245.999	199.734	80.005	19.995	100.362	19.996	2.091	0.505
246.500	199.986	80.005	19.995	100.363	19.998	1.975	0.483
247.000	200.289	80.005	19.996	100.359	20.000	1.811	0.524
247.499	200.499	80.005	19.997	100.353	20.001	1.755	0.534
247.999	200.771	80.005	19.996	100.346	19.997	1.994	0.497
248.499	201.012	80.006	19.995	100.339	19.998	1.951	0.497
248.999	201.216	80.005	19.995	100.333	19.997	2.008	0.479
249.499	201.486	80.005	19.994	100.332	19.999	1.881	0.460
249.999	201.713	80.005	19.995	100.334	20.000	1.825	0.485
250.499	201.944	80.006	19.995	100.335	20.000	1.828	0.478
250.999	202.222	80.006	19.995	100.335	19.998	1.972	0.484
251.499	202.481	80.005	19.995	100.335	19.997	2.008	0.523
251.999	202.699	80.007	19.995	100.335	19.999	1.880	0.507
252.499	202.958	80.005	19.996	100.334	19.996	2.057	0.477
252.999	203.184	80.006	19.995	100.335	19.999	1.902	0.481
253.499	203.476	80.006	19.995	100.336	20.000	1.835	0.502
253.999	203.693	80.005	19.995	100.338	19.998	1.974	0.513
254.499	203.967	80.005	19.995	100.338	19.999	1.862	0.500
254.999	204.188	80.005	19.995	100.338	19.994	2.199	0.493
255.499	204.441	80.007	19.994	100.336	19.995	2.120	0.484
255.999	204.651	80.005	19.995	100.334	19.998	1.985	0.469
256.499	204.917	80.007	19.995	100.332	19.996	2.050	0.470
256.999	205.152	80.005	19.995	100.332	20.000	1.847	0.489
257.499	205.358	80.007	19.994	100.332	19.998	1.972	0.471
257.999	205.636	80.006	19.995	100.332	19.997	2.016	0.462
258.499	205.880	80.005	19.995	100.332	19.999	1.898	0.503
258.999	206.108	80.005	19.995	100.335	20.001	1.794	0.497
259.499	206.353	80.006	19.995	100.336	19.999	1.864	0.473
259.999	206.593	80.006	19.994	100.336	19.998	1.965	0.479
260.499	206.864	80.005	19.996	100.336	19.999	1.890	0.498
260.999	207.126	80.004	19.995	100.335	19.997	2.003	0.522
261.499	207.361	80.004	19.994	100.333	19.998	1.929	0.515
261.999	207.613	80.004	19.995	100.333	19.998	1.941	0.492
262.499	207.838	80.005	19.995	100.333	19.997	2.049	0.482
262.999	208.090	80.005	19.995	100.333	19.997	1.992	0.477
263.499	208.358	80.004	19.995	100.334	19.998	1.977	0.498
263.999	208.622	80.004	19.996	100.334	20.000	1.861	0.526
264.499	208.818	80.006	19.995	100.334	20.000	1.842	0.496
264.999	209.103	80.004	19.996	100.333	19.997	1.987	0.470
265.499	209.315	80.005	19.996	100.333	20.001	1.774	0.489
265.999	209.550	80.005	19.996	100.334	19.998	1.950	0.472
266.499	209.786	80.005	19.995	100.334	20.000	1.833	0.459
266.999	210.046	80.005	19.994	100.334	20.001	1.784	0.483
267.499	210.261	80.006	19.996	100.334	20.002	1.724	0.486
268.000	210.551	80.005	19.996	100.334	19.998	1.943	0.490
268.500	210.757	80.005	19.995	100.333	20.000	1.825	0.501
268.999	211.033	80.006	19.995	100.333	19.997	1.989	0.489
269.499	211.237	80.005	19.995	100.334	19.999	1.917	0.481
269.999	211.521	80.005	19.995	100.334	20.000	1.847	0.483
270.499	211.771	80.006	19.995	100.334	19.997	2.047	0.511
270.999	212.017	80.005	19.995	100.334	20.000	1.818	0.515
271.499	212.274	80.006	19.995	100.334	20.001	1.772	0.499
271.999	212.525	80.006	19.996	100.333	19.999	1.874	0.506
272.499	212.753	80.006	19.995	100.333	20.000	1.854	0.494
272.999	212.981	80.006	19.995	100.332	19.999	1.890	0.467
273.499	213.257	80.006	19.996	100.332	19.999	1.902	0.479
273.999	213.470	80.007	19.995	100.332	19.999	1.862	0.496
274.500	213.740	80.006	19.996	100.332	20.002	1.729	0.486
275.000	213.997	80.006	19.995	100.332	19.999	1.921	0.505
275.500	214.220	80.006	19.996	100.332	20.001	1.779	0.503
276.000	214.499	80.007	19.995	100.332	20.000	1.847	0.492
276.499	214.754	80.007	19.995	100.332	20.001	1.798	0.518
277.000	214.935	80.007	19.995	100.331	20.000	1.827	0.485
277.500	215.164	80.007	19.995	100.332	19.999	1.912	0.423
277.999	215.459	80.008	19.995	100.331	19.999	1.885	0.467
278.499	215.704	80.008	19.996	100.332	19.997	2.003	0.532
278.999	215.931	80.009	19.995	100.331	20.000	1.842	0.506
279.499	216.185	80.008	19.995	100.331	19.999	1.885	0.477
279.999	216.421	80.007	19.995	100.331	19.999	1.902	0.485
280.499	216.645	80.007	19.994	100.331	20.000	1.813	0.475
280.999	216.924	80.005	19.995	100.331	20.000	1.845	0.481
281.499	217.149	80.006	19.994	100.332	20.000	1.816	0.504
282.000	217.423	80.007	19.994	100.332	19.999	1.917	0.502
282.500	217.663	80.008	19.994	100.332	19.998	1.948	0.506
282.999	217.910	80.007	19.995	100.332	20.001	1.770	0.501
283.499	218.141	80.006	19.995	100.332	20.000	1.839	0.483
283.999	218.364	80.009	19.993	100.332	20.001	1.792	0.466
284.499	218.591	80.008	19.994	100.332	20.000	1.827	0.452
284.999	218.870	80.006	19.994	100.333	20.002	1.733	0.478
285.499	219.130	80.007	19.994	100.333	19.999	1.869	0.522
285.999	219.386	80.007	19.995	100.333	19.998	1.956	0.527
286.499	219.593	80.006	19.995	100.334	20.001	1.763	0.490
286.999	219.842	80.007	19.995	100.334	20.000	1.821	0.460
287.499	220.119	80.007	19.995	100.334	19.999	1.873	0.491
287.999	220.335	80.006	19.994	100.334	20.001	1.777	0.509
288.499	220.626	80.007	19.996	100.334	20.000	1.827	0.499
288.999	220.816	80.006	19.994	100.334	20.001	1.739	0.494
289.500	221.040	80.005	19.995	100.334	19.999	1.898	0.448
290.000	221.323	80.006	19.994	100.334	20.000	1.827	0.461
290.499	221.587	80.006	19.995	100.333	20.000	1.847	0.527
290.999	221.838	80.007	19.994	100.333	20.003	1.637	0.531
291.499	222.084	80.004	19.995	100.333	20.001	1.736	0.506
291.999	222.315	80.006	19.995	100.332	20.003	1.666	0.487
292.499	222.569	80.005	19.995	100.330	20.001	1.777	0.481
292.999	222.837	80.007	19.995	100.331	20.001	1.736	0.503
293.500	223.004	80.005	19.995	100.332	20.002	1.675	0.478
294.000	223.282	80.006	19.995	100.331	20.002	1.734	0.441
294.500	223.516	80.005	19.995	100.331	20.001	1.762	0.479
294.999	223.776	80.005	19.995	100.333	20.001	1.796	0.503
295.500	224.023	80.006	19.995	100.333	20.001	1.777	0.500
296.000	224.259	80.006	19.995	100.332	20.003	1.657	0.495
296.499	224.506	80.007	19.996	100.333	20.002	1.692	0.483
296.999	224.764	80.006	19.995	100.334	20.003	1.627	0.494
297.499	225.015	80.005	19.995	100.334	20.002	1.693	0.507
297.999	225.269	80.007	19.995	100.333	20.007	1.399	0.507
298.499	225.499	80.007	19.995	100.333	20.006	1.447	0.495
298.999	225.756	80.006	19.996	100.333	20.004	1.557	0.485
299.499	226.009	80.006	19.995	100.332	20.004	1.560	0.498
299.999	226.251	80.006	19.994	100.333	20.002	1.685	0.503
300.499	226.511	80.006	19.996	100.333	20.006	1.478	0.499
300.999	226.730	80.007	19.996	100.333	20.007	1.362	0.490
301.500	227.030	80.007	19.995	100.334	20.004	1.582	0.498
302.000	227.200	80.007	19.995	100.334	20.002	1.679	0.494
302.499	227.467	80.007	19.995	100.334	20.002	1.676	0.453
302.999	227.725	80.007	19.996	100.334	20.005	1.521	0.481
303.499	227.957	80.007	19.995	100.334	20.004	1.567	0.507
303.999	228.225	80.007	19.995	100.334	20.003	1.654	0.495
304.499	228.468	80.008	19.995	100.334	20.004	1.599	0.506
304.999	228.739	80.008	19.995	100.334	20.004	1.580	0.513
305.499	228.995	80.008	19.994	100.334	20.002	1.683	0.520
305.999	229.235	80.007	19.994	100.333	20.003	1.647	0.511
306.499	229.473	80.008	19.994	100.333	20.002	1.729	0.487
306.999	229.725	80.006	19.995	100.330	20.001	1.785	0.485
307.500	229.980	80.006	19.995	100.330	20.002	1.679	0.498
308.000	230.252	80.006	19.994	100.330	20.002	1.732	0.516
308.499	230.502	80.007	19.995	100.330	20.003	1.662	0.524
308.999	230.738	80.007	19.995	100.329	20.005	1.522	0.504
309.499	230.973	80.008	19.995	100.332	20.004	1.596	0.479
309.999	231.212	80.006	19.996	100.331	20.004	1.565	0.472
310.499	231.488	80.006	19.995	100.332	20.005	1.524	0.494
310.999	231.739	80.007	19.995	100.329	20.002	1.719	0.521
311.499	231.991	80.007	19.995	100.324	20.002	1.734	0.515
311.999	232.222	80.005	19.995	100.323	20.003	1.649	0.493
312.499	232.476	80.006	19.996	100.323	20.003	1.649	0.484
312.999	232.737	80.007	19.995	100.323	20.005	1.543	0.500
313.499	232.987	80.006	19.996	100.326	20.003	1.644	0.513
313.999	233.216	80.007	19.995	100.332	20.006	1.435	0.495
314.499	233.456	80.005	19.995	100.333	20.005	1.491	0.474
315.000	233.730	80.006	19.996	100.332	20.007	1.418	0.491
315.500	233.936	80.005	19.995	100.331	20.005	1.526	0.497
316.000	234.161	80.005	19.997	100.329	20.003	1.613	0.456
316.500	234.418	80.005	19.995	100.327	20.004	1.599	0.457
316.999	234.687	80.006	19.997	100.325	20.003	1.656	0.504
317.499	234.949	80.006	19.996	100.324	20.004	1.582	0.529
317.999	235.190	80.003	19.995	100.322	20.004	1.609	0.517
318.499	235.446	80.005	19.995	100.322	20.004	1.568	0.500
318.999	235.677	80.005	19.996	100.324	20.004	1.609	0.492
319.499	235.910	80.005	19.996	100.326	20.002	1.685	0.475
320.000	236.166	80.006	19.995	100.327	20.003	1.647	0.476
320.500	236.410	80.004	19.995	100.330	20.003	1.628	0.495
320.999	236.674	80.005	19.996	100.331	20.006	1.469	0.504
321.499	236.908	80.005	19.995	100.332	20.003	1.625	0.503
321.999	237.171	80.005	19.996	100.331	20.006	1.439	0.498
322.499	237.372	80.005	19.996	100.332	20.005	1.514	0.481
322.999	237.684	80.005	19.995	100.329	20.007	1.413	0.489
323.499	237.897	80.005	19.995	100.327	20.005	1.493	0.519
323.999	238.164	80.004	19.996	100.326	20.002	1.692	0.502
324.499	238.390	80.003	19.996	100.325	20.003	1.659	0.487
324.999	238.637	80.003	19.996	100.320	20.002	1.719	0.483
325.499	238.897	80.006	19.996	100.321	20.004	1.601	0.490
325.999	239.132	80.004	19.996	100.323	20.007	1.380	0.501
326.499	239.363	80.004	19.996	100.322	20.006	1.485	0.481
326.999	239.641	80.004	19.996	100.322	20.006	1.430	0.488
327.499	239.857	80.004	19.996	100.327	20.005	1.493	0.501
327.999	240.122	80.004	19.996	100.327	20.006	1.456	0.487
328.499	240.358	80.004	19.995	100.326	20.002	1.724	0.491
328.999	240.629	80.005	19.996	100.325	20.003	1.625	0.504
329.499	240.854	80.003	19.997	100.320	20.003	1.615	0.502
329.999	241.099	80.004	19.996	100.319	20.007	1.411	0.483
330.500	241.340	80.005	19.996	100.318	20.008	1.314	0.478
331.000	241.582	80.004	19.996	100.318	20.005	1.486	0.485
331.500	241.874	80.006	19.997	100.316	20.004	1.575	0.509
331.999	242.083	80.004	19.997	100.319	20.005	1.536	0.517
332.499	242.334	80.005	19.996	100.320	20.005	1.527	0.480
332.999	242.578	80.004	19.996	100.321	20.004	1.551	0.478
333.499	242.821	80.004	19.996	100.323	20.004	1.551	0.491
333.999	243.105	80.004	19.996	100.326	20.004	1.584	0.507
334.499	243.332	80.006	19.996	100.329	20.003	1.661	0.518
334.999	243.590	80.004	19.996	100.328	20.006	1.462	0.498
335.500	243.818	80.004	19.996	100.328	20.005	1.515	0.486
336.000	244.105	80.006	19.996	100.324	20.006	1.485	0.501
336.499	244.347	80.004	19.996	100.322	20.006	1.473	0.522
336.999	244.579	80.005	19.996	100.321	20.006	1.483	0.501
337.499	244.829	80.003	19.996	100.317	20.006	1.452	0.478
338.000	245.063	80.005	19.996	100.314	20.006	1.435	0.483
338.500	245.313	80.005	19.995	100.317	20.006	1.423	0.484
339.000	245.584	80.004	19.996	100.318	20.005	1.515	0.503
339.500	245.792	80.005	19.996	100.319	20.005	1.543	0.500
339.999	246.047	80.004	19.995	100.323	20.006	1.457	0.471
340.499	246.298	80.006	19.995	100.327	20.007	1.365	0.485
340.999	246.543	80.005	19.996	100.329	20.004	1.551	0.501
341.499	246.822	80.005	19.995	100.330	20.005	1.512	0.510
341.999	247.049	80.005	19.995	100.328	20.006	1.428	0.515
342.499	247.328	80.008	19.996	100.327	20.006	1.433	0.506
342.999	247.542	80.005	19.995	100.325	20.009	1.250	0.499
343.499	247.815	80.005	19.995	100.324	20.010	1.187	0.490
343.999	248.048	80.005	19.996	100.322	20.009	1.269	0.496
344.499	248.317	80.006	19.996	100.324	20.008	1.355	0.504
344.999	248.584	80.006	19.995	100.325	20.008	1.304	0.519
345.499	248.825	80.007	19.994	100.326	20.009	1.292	0.522
345.999	249.054	80.005	19.995	100.321	20.008	1.310	0.489
346.499	249.300	80.005	19.995	100.320	20.007	1.399	0.473
346.999	249.558	80.004	19.996	100.319	20.008	1.351	0.490
347.499	249.841	80.004	19.995	100.320	20.010	1.204	0.523
347.999	250.095	80.006	19.994	100.320	20.004	1.584	0.539
348.499	250.360	80.004	19.995	100.325	20.007	1.411	0.528
349.000	250.600	80.005	19.995	100.322	20.005	1.508	0.512
349.500	250.874	80.005	19.994	100.320	20.010	1.233	0.509
349.999	251.103	80.004	19.996	100.318	20.008	1.334	0.508
350.499	251.352	80.005	19.994	100.318	20.006	1.444	0.490
350.999	251.648	80.004	19.995	100.316	20.008	1.312	0.512
351.499	251.854	80.004	19.994	100.318	20.008	1.355	0.524
352.000	252.120	80.005	19.996	100.317	20.008	1.333	0.487
352.500	252.396	80.004	19.995	100.313	20.010	1.179	0.507
352.999	252.621	80.005	19.995	100.314	20.006	1.444	0.522
353.499	252.883	80.005	19.995	100.312	20.007	1.396	0.494
353.999	253.092	80.005	19.995	100.309	20.007	1.380	0.479
354.499	253.396	80.006	19.995	100.310	20.007	1.403	0.492
354.999	253.607	80.006	19.994	100.314	20.008	1.312	0.515
355.499	253.854	80.003	19.996	100.315	20.007	1.408	0.487
355.999	254.103	80.007	19.996	100.318	20.009	1.280	0.477
356.499	254.369	80.006	19.996	100.325	20.007	1.375	0.505
356.999	254.618	80.006	19.996	100.326	20.009	1.276	0.515
357.499	254.867	80.005	19.995	100.325	20.008	1.310	0.506
357.999	255.121	80.005	19.994	100.322	20.010	1.230	0.501
358.499	255.378	80.005	19.995	100.319	20.010	1.199	0.507
358.999	255.630	80.007	19.996	100.314	20.008	1.334	0.510
359.499	255.881	80.006	19.995	100.313	20.009	1.285	0.506
359.999	256.099	80.006	19.994	100.315	20.010	1.184	0.486
360.499	256.325	80.006	19.996	100.314	20.009	1.285	0.456
360.999	256.601	80.006	19.995	100.316	20.010	1.222	0.473
361.499	256.839	80.006	19.994	100.321	20.008	1.322	0.508
361.999	257.082	80.007	19.995	100.323	20.012	1.047	0.498
362.499	257.292	80.009	19.996	100.320	20.007	1.392	0.467
362.999	257.547	80.007	19.995	100.322	20.010	1.213	0.459
363.499	257.843	80.005	19.994	100.319	20.008	1.333	0.508
363.999	258.090	80.007	19.995	100.317	20.008	1.343	0.547
364.499	258.339	80.006	19.995	100.318	20.011	1.129	0.519
364.999	258.592	80.007	19.994	100.317	20.009	1.244	0.499
365.499	258.840	80.006	19.995	100.320	20.011	1.152	0.502
365.999	259.063	80.008	19.995	100.325	20.009	1.281	0.486
366.499	259.341	80.006	19.995	100.326	20.011	1.160	0.486
366.999	259.566	80.006	19.996	100.323	20.010	1.208	0.502
367.499	259.828	80.006	19.995	100.326	20.009	1.273	0.495
367.999	260.058	80.004	19.994	100.326	20.009	1.292	0.490
368.500	260.285	80.006	19.994	100.322	20.010	1.208	0.474
369.000	260.526	80.006	19.994	100.321	20.010	1.193	0.462
369.499	260.815	80.006	19.995	100.321	20.010	1.174	0.499
370.000	261.014	80.005	19.994	100.317	20.014	0.955	0.509
370.500	261.296	80.005	19.993	100.313	20.014	0.982	0.484
371.000	261.520	80.006	19.995	100.315	20.013	1.040	0.493
371.499	261.772	80.005	19.994	100.316	20.011	1.151	0.491
371.999	262.024	80.006	19.995	100.318	20.011	1.143	0.490
372.499	262.303	80.004	19.995	100.322	20.015	0.883	0.517
372.999	262.521	80.005	19.995	100.324	20.011	1.114	0.514
373.499	262.742	80.004	19.994	100.321	20.012	1.071	0.468
373.999	263.004	80.005	19.994	100.317	20.013	1.001	0.461
374.500	263.267	80.005	19.994	100.316	20.009	1.254	0.504
375.000	263.463	80.005	19.995	100.317	20.008	1.307	0.492
375.499	263.756	80.007	19.994	100.318	20.010	1.201	0.474
375.999	264.006	80.007	19.994	100.321	20.011	1.133	0.516
376.499	264.241	80.006	19.995	100.326	20.008	1.317	0.514
376.999	264.505	80.007	19.994	100.328	20.009	1.285	0.493
377.499	264.796	80.004	19.994	100.330	20.008	1.303	0.527
377.999	265.023	80.006	19.995	100.329	20.010	1.201	0.536
378.499	265.262	80.005	19.995	100.329	20.013	1.006	0.492
378.999	265.531	80.005	19.995	100.327	20.008	1.324	0.487
379.499	265.723	80.006	19.994	100.327	20.012	1.097	0.485
379.999	266.002	80.007	19.994	100.323	20.011	1.133	0.466
380.500	266.269	80.008	19.994	100.321	20.012	1.080	0.509
381.000	266.512	80.006	19.995	100.322	20.012	1.064	0.528
381.500	266.743	80.006	19.994	100.319	20.011	1.168	0.492
382.000	266.986	80.007	19.994	100.312	20.010	1.206	0.474
382.499	267.276	80.006	19.994	100.310	20.011	1.156	0.503
382.999	267.533	80.007	19.994	100.307	20.013	0.996	0.540
383.499	267.819	80.009	19.994	100.305	20.013	0.998	0.545
383.999	268.046	80.007	19.994	100.305	20.011	1.156	0.529
384.499	268.303	80.007	19.994	100.309	20.011	1.119	0.499
384.999	268.556	80.008	19.994	100.312	20.009	1.247	0.497
385.499	268.779	80.007	19.993	100.316	20.012	1.088	0.493
385.999	269.008	80.009	19.995	100.317	20.013	1.025	0.464
386.499	269.284	80.008	19.994	100.319	20.014	0.968	0.478
386.999	269.525	80.008	19.994	100.320	20.014	0.939	0.511
387.499	269.777	80.008	19.995	100.316	20.012	1.092	0.505
387.999	270.030	80.006	19.995	100.313	20.014	0.929	0.499
388.499	270.299	80.009	19.994	100.309	20.016	0.811	0.514
388.999	270.541	80.008	19.995	100.305	20.015	0.868	0.516
389.499	270.815	80.009	19.994	100.300	20.014	0.965	0.513
389.999	271.025	80.007	19.995	100.304	20.015	0.859	0.500
390.499	271.346	80.007	19.995	100.306	20.016	0.818	0.508
390.999	271.584	80.009	19.994	100.305	20.018	0.733	0.545
391.499	271.818	80.008	19.994	100.303	20.015	0.919	0.515
391.999	272.052	80.007	19.994	100.305	20.017	0.762	0.470
392.499	272.312	80.008	19.994	100.304	20.018	0.704	0.481
392.999	272.550	80.008	19.996	100.304	20.016	0.813	0.496
393.499	272.787	80.007	19.995	100.308	20.013	1.032	0.487
393.999	273.044	80.009	19.996	100.309	20.013	1.033	0.484
394.499	273.267	80.008	19.995	100.309	20.013	1.030	0.487
394.999	273.513	80.008	19.995	100.307	20.016	0.810	0.474
395.499	273.786	80.006	19.994	100.302	20.012	1.103	0.494
395.999	274.009	80.006	19.995	100.298	20.014	0.936	0.508
396.499	274.276	80.007	19.995	100.299	20.013	1.032	0.493
396.999	274.547	80.006	19.996	100.298	20.012	1.074	0.513
397.499	274.782	80.006	19.995	100.297	20.014	0.975	0.522
398.000	275.061	80.006	19.995	100.303	20.011	1.163	0.510
398.500	275.308	80.005	19.996	100.309	20.013	1.045	0.520
398.999	275.542	80.006	19.995	100.309	20.012	1.107	0.504
399.499	275.815	80.006	19.996	100.309	20.011	1.153	0.494
399.999	276.028	80.007	19.996	100.309	20.011	1.136	0.496
400.499	276.297	80.006	19.995	100.303	20.012	1.083	0.484
400.999	276.608	80.007	19.994	100.298	20.014	0.969	0.531
401.499	276.808	80.006	19.995	100.294	20.008	1.307	0.545
401.999	277.067	80.005	19.996	100.294	20.011	1.148	0.485
402.499	277.372	80.006	19.996	100.294	20.010	1.208	0.512
402.999	277.596	80.006	19.995	100.294	20.009	1.266	0.547
403.499	277.768	80.005	19.995	100.292	20.009	1.274	0.463
403.999	278.064	80.006	19.995	100.293	20.010	1.213	0.432
404.499	278.308	80.006	19.995	100.293	20.011	1.131	0.504
404.999	278.558	80.005	19.995	100.293	20.009	1.267	0.517
405.500	278.803	80.006	19.995	100.295	20.010	1.189	0.495
406.000	279.044	80.006	19.995	100.297	20.012	1.088	0.490
406.499	279.300	80.007	19.995	100.299	20.009	1.245	0.491
406.999	279.552	80.007	19.995	100.301	20.008	1.310	0.503
407.499	279.787	80.006	19.995	100.307	20.010	1.196	0.498
407.999	280.059	80.006	19.995	100.306	20.008	1.324	0.497
408.499	280.272	80.006	19.995	100.306	20.010	1.206	0.496
408.999	280.554	80.006	19.996	100.303	20.011	1.136	0.489
409.499	280.759	80.006	19.996	100.302	20.011	1.170	0.491
409.999	281.006	80.004	19.995	100.296	20.009	1.283	0.469
410.499	281.269	80.005	19.995	100.295	20.011	1.131	0.481
410.999	281.479	80.007	19.995	100.297	20.011	1.136	0.492
411.499	281.697	80.006	19.995	100.304	20.010	1.232	0.450
411.999	282.009	80.005	19.995	100.310	20.010	1.233	0.479
412.499	282.244	80.006	19.995	100.317	20.012	1.049	0.539
413.000	282.463	80.006	19.995	100.322	20.010	1.182	0.501
413.500	282.712	80.007	19.995	100.325	20.010	1.196	0.461
413.999	282.968	80.006	19.995	100.323	20.008	1.339	0.486
414.499	283.232	80.006	19.995	100.318	20.009	1.259	0.512
414.999	283.465	80.006	19.995	100.313	20.011	1.170	0.509
415.500	283.742	80.006	19.996	100.309	20.012	1.069	0.504
416.000	283.944	80.005	19.996	100.306	20.010	1.187	0.495
416.500	284.187	80.006	19.995	100.303	20.011	1.110	0.462
416.999	284.439	80.006	19.996	100.305	20.010	1.213	0.469
417.499	284.673	80.006	19.997	100.305	20.013	1.044	0.490
417.999	284.954	80.006	19.995	100.303	20.011	1.117	0.501
418.499	285.187	80.005	19.995	100.300	20.012	1.073	0.515
419.000	285.454	80.005	19.996	100.300	20.013	1.042	0.507
419.500	285.683	80.006	19.995	100.303	20.010	1.216	0.498
419.999	285.952	80.005	19.993	100.303	20.013	1.013	0.497
420.499	286.181	80.005	19.996	100.303	20.008	1.307	0.497
421.000	286.395	80.004	19.997	100.307	20.011	1.138	0.470
421.500	286.641	80.004	19.996	100.310	20.010	1.204	0.452
422.000	286.906	80.005	19.996	100.306	20.010	1.199	0.486
422.500	287.158	80.004	19.996	100.308	20.009	1.249	0.514
423.000	287.402	80.004	19.997	100.309	20.011	1.162	0.507
423.500	287.641	80.003	19.995	100.305	20.014	0.943	0.490
423.999	287.920	80.004	19.996	100.301	20.012	1.098	0.500
424.500	288.132	80.004	19.995	100.302	20.011	1.119	0.504
425.000	288.409	80.005	19.996	100.300	20.011	1.120	0.490
425.500	288.650	80.006	19.996	100.302	20.012	1.107	0.503
426.000	288.909	80.003	19.997	100.305	20.009	1.266	0.509
426.499	289.160	80.005	19.996	100.303	20.011	1.114	0.505
426.999	289.413	80.006	19.997	100.301	20.012	1.049	0.507
427.499	289.647	80.005	19.996	100.301	20.014	0.950	0.495
427.999	289.895	80.005	19.997	100.300	20.010	1.215	0.485
428.499	290.144	80.004	19.996	100.301	20.012	1.047	0.489
428.999	290.400	80.004	19.997	100.304	20.012	1.056	0.501
429.499	290.586	80.003	19.996	100.304	20.010	1.174	0.474
429.999	290.893	80.005	19.996	100.307	20.009	1.247	0.468
430.499	291.170	80.003	19.996	100.311	20.011	1.126	0.539
430.999	291.403	80.004	19.995	100.308	20.014	0.939	0.547
431.499	291.664	80.004	19.996	100.307	20.011	1.148	0.502
431.999	291.919	80.004	19.996	100.307	20.011	1.117	0.505
432.499	292.178	80.003	19.995	100.304	20.011	1.158	0.515
432.999	292.401	80.003	19.995	100.301	20.012	1.056	0.498
433.499	292.660	80.005	19.995	100.301	20.012	1.050	0.482
433.999	292.902	80.003	19.996	100.300	20.009	1.271	0.491
434.499	293.172	80.004	19.995	100.300	20.012	1.103	0.506
434.999	293.396	80.005	19.995	100.300	20.009	1.252	0.503
435.499	293.670	80.006	19.996	100.297	20.009	1.295	0.496
435.999	293.911	80.004	19.994	100.296	20.016	0.798	0.506
436.500	294.133	80.004	19.995	100.297	20.011	1.155	0.489
437.000	294.402	80.006	19.995	100.298	20.010	1.173	0.477
437.499	294.649	80.006	19.995	100.300	20.009	1.235	0.504
437.999	294.928	80.006	19.995	100.301	20.012	1.093	0.522
438.499	295.162	80.006	19.995	100.304	20.010	1.190	0.520
438.999	295.409	80.007	19.996	100.307	20.012	1.088	0.497
439.499	295.619	80.005	19.994	100.310	20.013	1.044	0.469
440.000	295.920	80.006	19.995	100.309	20.012	1.095	0.484
440.500	296.160	80.007	19.994	100.309	20.012	1.079	0.526
441.000	296.365	80.004	19.995	100.306	20.013	0.997	0.493
441.500	296.627	80.006	19.994	100.305	20.012	1.050	0.456
442.000	296.887	80.006	19.994	100.302	20.009	1.272	0.495
442.499	297.137	80.007	19.995	100.300	20.011	1.160	0.516
442.999	297.386	80.007	19.994	100.299	20.011	1.160	0.504
443.499	297.638	80.006	19.994	100.302	20.011	1.131	0.499
444.000	297.907	80.007	19.995	100.301	20.016	0.846	0.511
444.500	298.197	80.007	19.994	100.301	20.012	1.074	0.540
444.999	298.415	80.007	19.995	100.301	20.015	0.898	0.533
445.499	298.664	80.007	19.994	100.301	20.013	1.004	0.487
446.000	298.889	80.006	19.995	100.298	20.013	1.006	0.470
446.500	299.144	80.008	19.994	100.298	20.013	1.038	0.477
447.000	299.380	80.007	19.994	100.296	20.013	1.044	0.486
447.499	299.625	80.008	19.995	100.295	20.013	1.044	0.486
447.999	299.860	80.008	19.995	100.294	20.012	1.078	0.481
448.500	300.108	80.009	19.995	100.293	20.011	1.134	0.481
449.000	300.363	80.006	19.994	100.293	20.014	0.975	0.493
449.499	300.590	80.008	19.995	100.292	20.012	1.061	0.493
449.999	300.872	80.007	19.995	100.293	20.008	1.320	0.496
450.499	301.107	80.008	19.995	100.293	20.009	1.295	0.513
450.999	301.341	80.008	19.995	100.293	20.010	1.175	0.493
451.499	301.591	80.008	19.994	100.292	20.013	0.996	0.477
451.999	301.856	80.008	19.995	100.292	20.012	1.102	0.500
452.499	302.071	80.007	19.995	100.292	20.011	1.124	0.497
452.999	302.345	80.007	19.994	100.291	20.012	1.047	0.484
453.499	302.623	80.008	19.995	100.291	20.014	0.958	0.521
453.999	302.834	80.007	19.995	100.292	20.011	1.129	0.521
454.499	303.110	80.007	19.995	100.294	20.012	1.095	0.488
454.999	303.395	80.007	19.995	100.299	20.013	1.042	0.524
455.499	303.628	80.007	19.996	100.300	20.011	1.146	0.539
455.999	303.847	80.006	19.995	100.300	20.013	1.038	0.485
456.499	304.069	80.008	19.995	100.299	20.012	1.069	0.447
456.999	304.367	80.007	19.995	100.297	20.010	1.233	0.481
457.500	304.598	80.007	19.995	100.293	20.010	1.185	0.525
458.000	304.888	80.008	19.994	100.293	20.011	1.124	0.525
458.499	305.143	80.008	19.996	100.293	20.010	1.182	0.533
459.000	305.363	80.007	19.995	100.292	20.011	1.149	0.510
459.500	305.637	80.007	19.996	100.293	20.008	1.322	0.484
459.999	305.871	80.008	19.995	100.292	20.006	1.467	0.500
460.500	306.123	80.006	19.995	100.292	20.010	1.187	0.497
461.000	306.352	80.006	19.994	100.292	20.006	1.440	0.484
461.499	306.603	80.009	19.995	100.293	20.009	1.264	0.480
462.000	306.848	80.007	19.995	100.293	20.010	1.177	0.488
462.500	307.124	80.006	19.995	100.294	20.009	1.281	0.508
462.999	307.325	80.006	19.996	100.294	20.007	1.397	0.499
463.499	307.629	80.007	19.995	100.294	20.008	1.308	0.491
464.000	307.869	80.008	19.994	100.294	20.009	1.252	0.525
464.500	308.102	80.007	19.995	100.293	20.011	1.160	0.508
464.999	308.346	80.007	19.995	100.292	20.013	1.035	0.475
465.499	308.634	80.005	19.996	100.292	20.013	1.021	0.505
465.999	308.839	80.008	19.995	100.293	20.010	1.182	0.512
466.499	309.107	80.008	19.994	100.292	20.008	1.353	0.483
467.000	309.397	80.008	19.994	100.293	20.010	1.218	0.516
467.500	309.605	80.008	19.995	100.293	20.012	1.079	0.528
468.000	309.849	80.008	19.995	100.293	20.007	1.385	0.475
468.499	310.065	80.009	19.995	100.292	20.010	1.179	0.456
468.999	310.368	80.009	19.994	100.292	20.011	1.132	0.489
469.499	310.580	80.010	19.995	100.292	20.009	1.279	0.517
469.999	310.845	80.008	19.994	100.291	20.010	1.182	0.496
470.499	311.084	80.009	19.994	100.291	20.011	1.158	0.491
470.999	311.319	80.009	19.994	100.291	20.012	1.090	0.489
471.500	311.566	80.009	19.994	100.291	20.009	1.254	0.478
472.000	311.854	80.008	19.994	100.291	20.012	1.107	0.508
472.500	312.084	80.008	19.995	100.291	20.010	1.218	0.527
473.000	312.353	80.009	19.994	100.291	20.007	1.375	0.508
473.500	312.609	80.009	19.994	100.291	20.007	1.370	0.512
473.999	312.836	80.009	19.994	100.291	20.007	1.366	0.504
474.499	313.095	80.008	19.994	100.291	20.010	1.187	0.484
474.999	313.334	80.009	19.995	100.290	20.008	1.312	0.492
475.500	313.577	80.008	19.994	100.291	20.009	1.283	0.490
476.000	313.836	80.007	19.995	100.291	20.009	1.274	0.492
476.499	314.041	80.007	19.994	100.291	20.012	1.107	0.483
476.999	314.312	80.006	19.993	100.291	20.009	1.266	0.470
477.499	314.608	80.006	19.994	100.292	20.010	1.184	0.522
477.999	314.839	80.007	19.994	100.292	20.009	1.254	0.547
478.499	315.115	80.007	19.995	100.293	20.012	1.109	0.517
479.000	315.376	80.007	19.993	100.293	20.007	1.389	0.522
479.500	315.588	80.005	19.995	100.293	20.006	1.471	0.505
479.999	315.822	80.005	19.994	100.293	20.007	1.419	0.460
480.499	316.057	80.005	19.997	100.294	20.007	1.421	0.458
480.999	316.321	80.007	19.996	100.295	20.007	1.414	0.484
481.499	316.590	80.005	19.996	100.296	20.006	1.460	0.516
481.999	316.822	80.005	19.995	100.297	20.009	1.237	0.517
482.499	317.108	80.006	19.995	100.297	20.007	1.382	0.510
482.999	317.336	80.006	19.995	100.296	20.007	1.406	0.516
483.499	317.564	80.005	19.995	100.295	20.008	1.336	0.485
483.999	317.878	80.005	19.994	100.295	20.008	1.307	0.499
484.499	318.102	80.006	19.995	100.295	20.007	1.413	0.540
484.999	318.337	80.005	19.995	100.296	20.006	1.481	0.498
485.499	318.614	80.006	19.996	100.295	20.006	1.431	0.485
485.999	318.855	80.004	19.995	100.295	20.006	1.457	0.515
486.499	319.092	80.006	19.995	100.296	20.008	1.305	0.498
486.999	319.323	80.004	19.995	100.296	20.006	1.471	0.473
487.500	319.551	80.005	19.995	100.296	20.001	1.759	0.464
488.000	319.815	80.005	19.995	100.297	20.004	1.561	0.476
488.499	320.054	80.003	19.995	100.300	20.006	1.462	0.497
488.999	320.322	80.004	19.995	100.300	20.008	1.339	0.505
489.500	320.552	80.004	19.994	100.299	20.004	1.580	0.503
490.000	320.796	80.003	19.996	100.299	20.006	1.435	0.486
490.499	321.089	80.005	19.995	100.298	20.005	1.486	0.505
490.999	321.332	80.004	19.996	100.295	20.008	1.298	0.536
491.499	321.576	80.005	19.996	100.295	20.005	1.536	0.512
491.999	321.811	80.004	19.995	100.294	20.006	1.484	0.483
492.499	322.051	80.005	19.995	100.294	20.006	1.452	0.477
493.000	322.299	80.005	19.996	100.294	20.004	1.559	0.482
493.500	322.570	80.004	19.995	100.294	20.006	1.440	0.503
493.999	322.797	80.005	19.995	100.294	20.001	1.740	0.509
494.499	323.018	80.006	19.996	100.294	20.002	1.679	0.474
494.999	323.295	80.006	19.994	100.293	20.004	1.561	0.473
495.499	323.524	80.003	19.995	100.294	20.004	1.599	0.502
495.999	323.810	80.006	19.995	100.293	20.004	1.580	0.510
496.499	324.012	80.005	19.995	100.293	20.006	1.471	0.501
496.999	324.285	80.005	19.995	100.293	20.008	1.339	0.481
497.499	324.486	80.003	19.995	100.294	20.007	1.414	0.475
497.999	324.791	80.007	19.995	100.294	20.003	1.670	0.491
498.499	325.021	80.002	19.995	100.294	20.006	1.479	0.521
498.999	325.263	80.004	19.995	100.294	20.008	1.342	0.503
499.500	325.526	80.006	19.995	100.295	20.007	1.385	0.488
500.000	325.785	80.006	19.994	100.295	20.009	1.279	0.513
500.499	326.050	80.005	19.995	100.294	20.005	1.503	0.523
501.000	326.300	80.004	19.995	100.295	20.007	1.402	0.520
501.500	326.478	80.005	19.995	100.294	20.008	1.337	0.471
501.999	326.737	80.004	19.994	100.295	20.005	1.500	0.432
502.499	327.028	80.005	19.995	100.295	20.005	1.522	0.493
502.999	327.274	80.006	19.994	100.295	20.004	1.571	0.543
503.499	327.513	80.004	19.995	100.295	20.006	1.462	0.511
503.999	327.785	80.005	19.995	100.295	20.005	1.517	0.498
504.500	327.976	80.004	19.995	100.295	20.005	1.506	0.488
505.000	328.232	80.004	19.995	100.296	20.005	1.532	0.455
505.499	328.497	80.005	19.994	100.295	20.006	1.459	0.484
505.999	328.805	80.004	19.995	100.296	20.006	1.465	0.547
506.499	329.016	80.005	19.995	100.296	20.002	1.679	0.546
506.999	329.252	80.005	19.994	100.296	20.002	1.693	0.483
507.499	329.492	80.004	19.996	100.296	20.001	1.766	0.461
507.999	329.756	80.006	19.995	100.296	20.001	1.740	0.490
508.499	330.043	80.006	19.995	100.296	20.003	1.633	0.528
508.999	330.252	80.005	19.995	100.295	20.003	1.634	0.524
509.499	330.527	80.004	19.995	100.295	20.003	1.636	0.489
509.999	330.792	80.005	19.996	100.294	20.002	1.691	0.512
510.499	331.045	80.003	19.995	100.294	19.999	1.863	0.529
511.000	331.315	80.005	19.996	100.294	20.003	1.658	0.521
511.500	331.581	80.004	19.995	100.294	19.999	1.872	0.530
512.000	331.789	80.005	19.994	100.294	20.001	1.752	0.505
512.500	332.072	80.003	19.995	100.293	20.000	1.809	0.483
512.999	332.315	80.004	19.996	100.292	20.000	1.860	0.509
513.499	332.581	80.004	19.995	100.291	19.998	1.935	0.517
513.999	332.831	80.003	19.996	100.290	19.999	1.886	0.512
514.499	333.113	80.005	19.996	100.290	20.002	1.720	0.524
514.999	333.375	80.003	19.995	100.290	20.003	1.662	0.538
515.499	333.618	80.004	19.996	100.290	20.001	1.781	0.524
515.999	333.869	80.004	19.996	100.290	19.999	1.889	0.499
516.499	334.119	80.004	19.996	100.290	20.002	1.734	0.498
516.999	334.352	80.003	19.995	100.290	20.003	1.629	0.492
517.500	334.620	80.003	19.996	100.290	19.998	1.933	0.492
518.000	334.862	80.004	19.996	100.289	19.999	1.887	0.505
518.500	335.136	80.004	19.997	100.290	19.999	1.920	0.513
519.000	335.360	80.004	19.996	100.290	19.999	1.870	0.507
519.500	335.621	80.004	19.996	100.290	20.001	1.780	0.491
519.999	335.863	80.005	19.997	100.290	20.000	1.845	0.494
520.499	336.121	80.004	19.996	100.289	19.999	1.904	0.502
520.999	336.362	80.004	19.996	100.289	19.998	1.940	0.500
521.499	336.621	80.004	19.996	100.289	19.996	2.079	0.499
521.999	336.890	80.003	19.996	100.290	19.993	2.266	0.514
522.499	337.110	80.005	19.995	100.289	19.995	2.133	0.509
522.999	337.405	80.005	19.996	100.289	19.995	2.113	0.502
523.499	337.657	80.004	19.996	100.289	19.995	2.159	0.531
523.999	337.918	80.007	19.996	100.289	19.993	2.241	0.530
524.499	338.156	80.004	19.996	100.289	19.992	2.323	0.506
524.999	338.428	80.004	19.996	100.289	19.990	2.429	0.505
525.499	338.664	80.005	19.996	100.289	19.995	2.164	0.508
525.999	338.916	80.006	19.996	100.289	19.996	2.063	0.497
526.499	339.157	80.005	19.996	100.289	19.993	2.244	0.490
526.999	339.379	80.006	19.995	100.289	19.991	2.366	0.478
527.499	339.671	80.007	19.996	100.289	19.993	2.243	0.489
528.000	339.919	80.006	19.995	100.288	19.996	2.104	0.527
528.500	340.151	80.005	19.995	100.288	19.995	2.138	0.510
528.999	340.441	80.005	19.995	100.289	19.993	2.263	0.501
529.499	340.695	80.007	19.994	100.288	19.993	2.237	0.533
529.999	340.912	80.006	19.995	100.289	19.994	2.186	0.508
530.499	341.174	80.006	19.996	100.289	19.993	2.241	0.475
530.999	341.438	80.006	19.995	100.290	19.994	2.232	0.502
531.500	341.728	80.007	19.995	100.290	19.989	2.516	0.540
532.000	341.954	80.005	19.994	100.291	19.991	2.403	0.535
532.499	342.171	80.008	19.994	100.292	19.991	2.391	0.480
532.999	342.404	80.006	19.994	100.291	19.996	2.099	0.446
533.499	342.690	80.006	19.995	100.291	19.990	2.461	0.484
533.999	342.953	80.007	19.995	100.291	19.992	2.360	0.534
534.499	343.204	80.006	19.995	100.291	19.991	2.420	0.532
534.999	343.449	80.006	19.996	100.291	19.995	2.173	0.505
535.499	343.682	80.005	19.994	100.291	19.991	2.371	0.487
535.999	343.929	80.006	19.996	100.290	19.991	2.386	0.479
536.499	344.167	80.006	19.995	100.290	19.992	2.359	0.482
536.999	344.410	80.006	19.995	100.290	19.992	2.330	0.483
537.500	344.683	80.004	19.995	100.290	19.990	2.466	0.499
538.000	344.888	80.007	19.995	100.290	19.993	2.292	0.497
538.499	345.158	80.007	19.994	100.290	19.989	2.495	0.477
538.999	345.440	80.006	19.994	100.290	19.991	2.401	0.514
539.500	345.704	80.007	19.995	100.290	19.992	2.328	0.549
540.000	345.954	80.005	19.994	100.291	19.993	2.292	0.530
540.499	346.171	80.005	19.996	100.291	19.987	2.646	0.490
541.000	346.421	80.006	19.995	100.292	19.990	2.454	0.467
541.500	346.749	80.004	19.994	100.292	19.989	2.516	0.522
541.999	347.005	80.005	19.995	100.291	19.988	2.581	0.581
542.500	347.230	80.005	19.995	100.291	19.987	2.635	0.533
543.000	347.442	80.005	19.994	100.291	19.985	2.775	0.460
543.499	347.711	80.006	19.995	100.291	19.984	2.856	0.459
543.999	347.989	80.005	19.995	100.291	19.984	2.813	0.514
544.499	348.253	80.008	19.995	100.290	19.987	2.630	0.544
544.999	348.492	80.006	19.994	100.290	19.987	2.671	0.522
545.499	348.741	80.007	19.995	100.290	19.985	2.779	0.496
545.999	349.023	80.007	19.995	100.290	19.989	2.500	0.510
546.499	349.236	80.005	19.995	100.290	19.986	2.697	0.513
546.999	349.490	80.008	19.994	100.291	19.986	2.678	0.481
547.499	349.796	80.007	19.995	100.292	19.984	2.833	0.514
547.999	350.034	80.008	19.994	100.292	19.982	2.979	0.552
548.499	350.244	80.007	19.994	100.292	19.984	2.851	0.496
548.999	350.562	80.006	19.994	100.293	19.984	2.830	0.488
549.499	350.827	80.006	19.994	100.294	19.979	3.139	0.555
549.999	351.048	80.008	19.995	100.294	19.984	2.840	0.535
550.499	351.313	80.008	19.995	100.294	19.982	2.943	0.486
551.000	351.575	80.008	19.994	100.294	19.982	2.980	0.507
551.500	351.804	80.007	19.994	100.294	19.982	2.950	0.509
552.000	352.078	80.009	19.994	100.294	19.983	2.921	0.497
552.499	352.329	80.009	19.994	100.294	19.983	2.914	0.514
552.999	352.616	80.009	19.995	100.293	19.982	2.950	0.531
553.499	352.868	80.009	19.995	100.293	19.980	3.102	0.538
553.999	353.155	80.010	19.995	100.293	19.978	3.199	0.540
554.499	353.373	80.008	19.994	100.293	19.978	3.192	0.522
555.000	353.636	80.008	19.995	100.292	19.976	3.312	0.493
555.500	353.898	80.009	19.995	100.291	19.978	3.232	0.503
556.000	354.149	80.006	19.995	100.290	19.972	3.599	0.519
556.500	354.374	80.007	19.994	100.290	19.975	3.370	0.494
556.999	354.621	80.007	19.994	100.288	19.974	3.448	0.474
557.499	354.897	80.008	19.993	100.289	19.973	3.507	0.497
557.999	355.178	80.005	19.994	100.290	19.973	3.524	0.540
558.499	355.377	80.006	19.994	100.291	19.976	3.353	0.519
559.000	355.646	80.006	19.994	100.290	19.973	3.549	0.474
559.500	355.904	80.006	19.995	100.292	19.975	3.404	0.498
560.000	356.220	80.006	19.994	100.292	19.971	3.662	0.550
560.500	356.433	80.006	19.995	100.292	19.970	3.691	0.551
561.000	356.713	80.007	19.994	100.293	19.968	3.848	0.511
561.500	356.950	80.005	19.994	100.293	19.968	3.802	0.505
561.999	357.206	80.004	19.995	100.292	19.967	3.903	0.505
562.499	357.433	80.005	19.993	100.292	19.963	4.132	0.488
562.999	357.686	80.004	19.995	100.292	19.965	4.046	0.482
563.500	357.982	80.006	19.993	100.292	19.966	3.952	0.515
564.000	358.211	80.003	19.995	100.293	19.963	4.137	0.537
564.500	358.444	80.004	19.994	100.293	19.964	4.097	0.493
565.000	358.716	80.003	19.995	100.293	19.966	3.942	0.484
565.500	358.991	80.005	19.995	100.293	19.964	4.054	0.526
565.999	359.241	80.005	19.996	100.293	19.960	4.352	0.536
566.499	359.508	80.004	19.993	100.292	19.959	4.403	0.521
566.999	359.735	80.005	19.995	100.292	19.958	4.483	0.506
567.499	360.007	80.003	19.994	100.293	19.963	4.169	0.497
567.999	360.239	80.005	19.994	100.294	19.960	4.310	0.502
568.499	360.497	80.004	19.994	100.294	19.961	4.285	0.497
568.999	360.764	80.006	19.995	100.294	19.958	4.433	0.507
569.499	361.010	80.005	19.994	100.291	19.955	4.650	0.519
570.000	361.268	80.003	19.994	100.289	19.957	4.500	0.509
570.500	361.553	80.005	19.995	100.289	19.954	4.736	0.524
570.999	361.769	80.005	19.994	100.289	19.954	4.698	0.522
571.500	362.080	80.006	19.993	100.289	19.954	4.733	0.514
572.000	362.310	80.005	19.994	100.293	19.955	4.621	0.534
572.499	362.552	80.006	19.994	100.295	19.950	4.942	0.507
572.999	362.791	80.004	19.994	100.296	19.949	5.034	0.476
573.499	363.078	80.005	19.995	100.296	19.951	4.891	0.503
573.999	363.322	80.005	19.995	100.295	19.951	4.907	0.529
574.499	363.593	80.006	19.994	100.291	19.948	5.103	0.523
574.999	363.851	80.006	19.993	100.288	19.949	5.049	0.522
575.499	364.085	80.003	19.994	100.287	19.947	5.134	0.511
576.000	364.355	80.006	19.995	100.285	19.946	5.178	0.497
576.500	364.571	80.004	19.994	100.280	19.947	5.133	0.495
576.999	364.862	80.007	19.995	100.284	19.946	5.229	0.496
577.499	365.108	80.007	19.995	100.286	19.944	5.336	0.522
577.999	365.416	80.006	19.995	100.283	19.943	5.393	0.546
578.499	365.667	80.005	19.996	100.277	19.945	5.275	0.557
578.999	365.893	80.006	19.996	100.278	19.941	5.496	0.517
579.500	366.140	80.006	19.997	100.278	19.943	5.426	0.474
580.000	366.431	80.005	19.995	100.277	19.942	5.489	0.505
580.499	366.684	80.005	19.995	100.277	19.940	5.588	0.541
580.999	366.941	80.005	19.995	100.281	19.941	5.514	0.527
581.499	367.206	80.006	19.995	100.279	19.942	5.461	0.516
581.999	367.446	80.004	19.995	100.273	19.938	5.683	0.513
582.499	367.740	80.006	19.995	100.269	19.942	5.446	0.519
582.999	368.000	80.005	19.995	100.270	19.941	5.550	0.544
583.499	368.241	80.005	19.996	100.269	19.942	5.464	0.527
583.999	368.503	80.004	19.995	100.275	19.937	5.752	0.502
584.499	368.771	80.006	19.995	100.280	19.938	5.704	0.517
584.999	369.024	80.006	19.995	100.285	19.935	5.892	0.526
585.499	369.266	80.005	19.995	100.286	19.934	5.962	0.508
586.000	369.540	80.004	19.996	100.289	19.937	5.753	0.505
586.500	369.794	80.004	19.995	100.287	19.936	5.811	0.522
586.999	370.088	80.005	19.996	100.284	19.932	6.055	0.538
587.499	370.306	80.005	19.996	100.277	19.933	6.018	0.530
588.000	370.558	80.005	19.996	100.272	19.931	6.115	0.491
588.500	370.855	80.004	19.996	100.271	19.933	6.007	0.509
588.999	371.090	80.004	19.995	100.273	19.928	6.335	0.541
589.499	371.323	80.004	19.995	100.276	19.928	6.338	0.500
589.999	371.605	80.005	19.995	100.282	19.926	6.441	0.491
590.499	371.849	80.004	19.996	100.284	19.926	6.487	0.521
590.999	372.112	80.006	19.996	100.282	19.924	6.565	0.516
591.499	372.357	80.004	19.996	100.280	19.925	6.504	0.507
591.999	372.639	80.007	19.996	100.273	19.923	6.630	0.518
592.499	372.923	80.005	19.996	100.273	19.920	6.816	0.547
592.999	373.159	80.006	19.996	100.275	19.918	6.972	0.543
593.499	373.418	80.005	19.995	100.278	19.915	7.128	0.507
593.999	373.666	80.005	19.995	100.280	19.913	7.256	0.501
594.499	373.954	80.005	19.995	100.287	19.914	7.221	0.521
594.999	374.180	80.005	19.996	100.287	19.911	7.403	0.525
595.499	374.447	80.004	19.996	100.286	19.912	7.328	0.504
595.999	374.699	80.002	19.994	100.284	19.910	7.456	0.506
596.499	374.961	80.004	19.996	100.282	19.907	7.675	0.517
596.999	375.213	80.006	19.996	100.278	19.906	7.681	0.514
597.499	375.471	80.005	19.995	100.279	19.904	7.820	0.511
597.999	375.722	80.004	19.996	100.276	19.902	7.946	0.510
598.499	375.979	80.006	19.995	100.273	19.902	7.939	0.509
598.999	376.233	80.007	19.996	100.272	19.902	7.976	0.510
599.499	376.481	80.005	19.995	100.272	19.898	8.181	0.506
599.999	376.722	80.005	19.994	100.266	19.897	8.275	0.495
600.499	376.991	80.006	19.994	100.265	19.900	8.094	0.499
601.000	377.283	80.003	19.996	100.264	19.897	8.248	0.536
601.500	377.523	80.004	19.995	100.262	19.892	8.559	0.547
602.000	377.731	80.004	19.994	100.265	19.891	8.617	0.489
602.500	378.008	80.006	19.995	100.266	19.889	8.767	0.466
602.999	378.259	80.004	19.996	100.266	19.890	8.687	0.507
603.499	378.528	80.005	19.995	100.266	19.891	8.666	0.524
603.999	378.771	80.005	19.996	100.264	19.886	8.941	0.516
604.499	379.042	80.005	19.995	100.259	19.887	8.894	0.512
605.000	379.298	80.006	19.996	100.257	19.888	8.846	0.521
605.500	379.576	80.005	19.995	100.257	19.889	8.804	0.531
606.000	379.850	80.005	19.995	100.255	19.889	8.760	0.543
606.500	380.110	80.005	19.995	100.255	19.885	9.012	0.543
606.999	380.308	80.005	19.996	100.255	19.884	9.058	0.496
607.499	380.564	80.007	19.995	100.256	19.884	9.109	0.456
607.999	380.844	80.005	19.996	100.254	19.883	9.180	0.495
608.499	381.068	80.004	19.995	100.254	19.884	9.076	0.520
608.999	381.341	80.005	19.995	100.253	19.881	9.289	0.500
609.499	381.616	80.005	19.995	100.253	19.882	9.201	0.523
609.999	381.876	80.005	19.996	100.251	19.882	9.222	0.542
610.499	382.098	80.006	19.995	100.252	19.880	9.309	0.509
611.000	382.347	80.004	19.996	100.251	19.878	9.478	0.477
611.500	382.596	80.008	19.996	100.252	19.876	9.579	0.484
611.999	382.866	80.005	19.996	100.253	19.877	9.519	0.508
612.499	383.103	80.006	19.996	100.254	19.878	9.483	0.513
612.999	383.389	80.005	19.996	100.254	19.877	9.546	0.515
613.499	383.609	80.006	19.996	100.255	19.872	9.828	0.515
613.999	383.888	80.006	19.996	100.255	19.873	9.775	0.503
614.499	384.168	80.006	19.996	100.254	19.869	10.015	0.529
614.999	384.388	80.005	19.996	100.254	19.870	9.964	0.530
615.499	384.648	80.005	19.996	100.257	19.869	10.034	0.490
615.999	384.870	80.007	19.996	100.260	19.867	10.157	0.481
616.499	385.135	80.007	19.996	100.264	19.865	10.250	0.484
616.999	385.366	80.006	19.996	100.271	19.864	10.315	0.491
617.499	385.622	80.007	19.995	100.276	19.860	10.561	0.491
617.999	385.867	80.005	19.996	100.278	19.861	10.556	0.494
618.499	386.122	80.005	19.995	100.277	19.860	10.580	0.501
618.999	386.409	80.005	19.996	100.274	19.857	10.752	0.521
619.499	386.656	80.006	19.995	100.269	19.856	10.813	0.537
619.999	386.913	80.006	19.997	100.265	19.854	10.986	0.519
620.499	387.135	80.006	19.996	100.261	19.852	11.093	0.492
620.999	387.377	80.006	19.997	100.259	19.851	11.136	0.471
621.499	387.630	80.007	19.996	100.258	19.852	11.118	0.479
621.999	387.904	80.005	19.995	100.257	19.852	11.117	0.511
622.499	388.165	80.005	19.996	100.259	19.847	11.397	0.531
622.999	388.407	80.006	19.996	100.260	19.848	11.364	0.519
623.499	388.629	80.005	19.995	100.260	19.846	11.441	0.484
623.999	388.922	80.007	19.996	100.259	19.842	11.700	0.489
624.499	389.185	80.006	19.995	100.258	19.842	11.707	0.535
624.999	389.370	80.006	19.995	100.255	19.841	11.777	0.502
625.499	389.647	80.006	19.994	100.254	19.835	12.127	0.455
625.999	389.884	80.007	19.995	100.254	19.834	12.193	0.488
626.499	390.150	80.005	19.994	100.253	19.832	12.335	0.509
626.999	390.408	80.006	19.994	100.255	19.833	12.277	0.514
627.499	390.643	80.008	19.995	100.259	19.824	12.835	0.508
627.999	390.890	80.006	19.995	100.260	19.822	12.939	0.487
628.499	391.161	80.007	19.994	100.263	19.819	13.149	0.500
628.999	391.413	80.006	19.995	100.264	19.817	13.272	0.521
629.499	391.658	80.007	19.995	100.265	19.816	13.342	0.510
630.000	391.928	80.005	19.994	100.262	19.812	13.612	0.506
630.500	392.171	80.007	19.994	100.261	19.810	13.725	0.514
630.999	392.440	80.008	19.994	100.259	19.809	13.787	0.513
631.500	392.680	80.007	19.994	100.259	19.806	13.949	0.511
632.000	392.914	80.006	19.993	100.257	19.804	14.079	0.491
632.500	393.157	80.009	19.994	100.257	19.805	14.051	0.476
633.000	393.401	80.006	19.994	100.256	19.801	14.298	0.483
633.499	393.687	80.008	19.994	100.255	19.800	14.338	0.509
633.999	393.925	80.007	19.994	100.255	19.800	14.324	0.527
634.499	394.190	80.007	19.994	100.255	19.802	14.244	0.513
635.000	394.433	80.008	19.994	100.255	19.799	14.416	0.505
635.500	394.696	80.007	19.994	100.255	19.797	14.558	0.507
635.999	394.975	80.008	19.994	100.254	19.794	14.712	0.524
636.500	395.227	80.008	19.994	100.252	19.792	14.857	0.537
637.000	395.460	80.008	19.995	100.251	19.789	15.019	0.508
637.499	395.714	80.009	19.994	100.251	19.788	15.091	0.486
638.000	395.948	80.010	19.995	100.251	19.785	15.299	0.487
638.500	396.202	80.008	19.994	100.252	19.787	15.154	0.488
639.000	396.452	80.009	19.994	100.260	19.784	15.345	0.496
639.500	396.723	80.007	19.994	100.261	19.781	15.545	0.512
639.999	396.938	80.007	19.994	100.261	19.778	15.690	0.503
640.499	397.197	80.008	19.994	100.261	19.779	15.641	0.480
640.999	397.451	80.006	19.994	100.261	19.779	15.680	0.494
641.499	397.702	80.006	19.995	100.256	19.775	15.876	0.509
641.999	397.985	80.008	19.995	100.255	19.775	15.895	0.520
642.499	398.193	80.007	19.994	100.255	19.773	16.013	0.513
643.000	398.475	80.005	19.994	100.254	19.775	15.925	0.490
643.500	398.705	80.007	19.995	100.253	19.776	15.854	0.501
644.000	398.975	80.006	19.994	100.250	19.773	16.014	0.506
644.500	399.207	80.005	19.995	100.249	19.765	16.500	0.501
645.000	399.464	80.005	19.995	100.249	19.764	16.570	0.496
645.500	399.705	80.004	19.994	100.249	19.764	16.559	0.494
645.999	399.962	80.005	19.995	100.250	19.760	16.868	0.498
646.499	400.192	80.004	19.995	100.251	19.755	17.162	0.493
647.000	400.417	80.007	19.995	100.251	19.750	17.496	0.471
647.500	400.707	80.005	19.994	100.251	19.747	17.648	0.484
647.999	400.941	80.004	19.996	100.251	19.741	18.018	0.519
648.499	401.173	80.006	19.995	100.251	19.742	17.983	0.495
648.999	401.419	80.007	19.995	100.252	19.736	18.338	0.472
649.499	401.679	80.005	19.995	100.252	19.732	18.625	0.492
649.999	401.894	80.005	19.995	100.253	19.726	18.980	0.491
650.499	402.148	80.007	19.994	100.254	19.725	19.008	0.472
650.999	402.417	80.006	19.996	100.254	19.721	19.252	0.496
651.499	402.668	80.005	19.995	100.253	19.722	19.250	0.522
651.999	402.915	80.005	19.996	100.254	19.716	19.567	0.509
652.499	403.174	80.005	19.995	100.253	19.710	19.989	0.502
652.999	403.427	80.005	19.996	100.253	19.708	20.071	0.509
653.500	403.674	80.004	19.996	100.252	19.702	20.450	0.506
654.000	403.920	80.006	19.994	100.248	19.698	20.744	0.497
654.499	404.201	80.004	19.995	100.244	19.695	20.938	0.511
654.999	404.421	80.008	19.996	100.238	19.690	21.246	0.514
655.499	404.664	80.005	19.995	100.235	19.686	21.469	0.482
655.999	404.931	80.006	19.995	100.235	19.679	21.879	0.487
656.499	405.180	80.004	19.995	100.239	19.675	22.179	0.513
657.000	405.438	80.006	19.995	100.240	19.669	22.545	0.511
657.500	405.733	80.005	19.995	100.245	19.666	22.733	0.530
658.000	405.952	80.004	19.995	100.248	19.662	22.995	0.534
658.499	406.196	80.006	19.995	100.249	19.656	23.350	0.488
658.999	406.417	80.004	19.994	100.250	19.652	23.623	0.464
659.499	406.699	80.006	19.996	100.252	19.648	23.872	0.484
660.000	406.946	80.006	19.995	100.254	19.643	24.175	0.516
660.500	407.209	80.007	19.995	100.253	19.639	24.383	0.520
661.000	407.438	80.008	19.996	100.253	19.635	24.630	0.501
661.499	407.676	80.008	19.996	100.253	19.630	24.964	0.479
661.999	407.969	80.006	19.994	100.253	19.625	25.307	0.499
662.499	408.206	80.006	19.995	100.253	19.617	25.772	0.531
662.999	408.446	80.006	19.995	100.253	19.614	25.958	0.504
663.499	408.697	80.007	19.995	100.252	19.610	26.235	0.484
663.999	408.953	80.007	19.995	100.252	19.607	26.441	0.498
664.499	409.195	80.006	19.995	100.252	19.599	26.931	0.502
665.000	409.448	80.006	19.994	100.252	19.597	27.044	0.497
665.500	409.716	80.008	19.995	100.252	19.593	27.319	0.509
665.999	409.978	80.007	19.995	100.253	19.585	27.782	0.526
666.500	410.203	80.006	19.994	100.251	19.582	27.980	0.508
667.000	410.475	80.007	19.995	100.251	19.577	28.287	0.492
667.500	410.719	80.006	19.994	100.251	19.573	28.510	0.507
668.000	410.969	80.006	19.996	100.253	19.569	28.784	0.505
668.499	411.237	80.004	19.995	100.253	19.563	29.142	0.506
668.999	411.518	80.006	19.994	100.255	19.557	29.514	0.534
669.499	411.742	80.008	19.995	100.251	19.551	29.934	0.527
669.999	411.978	80.007	19.995	100.247	19.544	30.339	0.482
670.499	412.255	80.006	19.995	100.242	19.537	30.796	0.486
670.999	412.504	80.007	19.995	100.242	19.528	31.317	0.519
671.499	412.724	80.008	19.995	100.242	19.521	31.811	0.497
671.999	412.996	80.005	19.995	100.246	19.512	32.349	0.480
672.499	413.235	80.007	19.995	100.250	19.506	32.716	0.502
672.999	413.474	80.006	19.995	100.253	19.491	33.654	0.495
673.499	413.725	80.006	19.995	100.252	19.481	34.298	0.484
673.999	414.002	80.007	19.995	100.253	19.472	34.875	0.509
674.499	414.262	80.007	19.995	100.253	19.463	35.417	0.532
674.999	414.527	80.006	19.995	100.254	19.451	36.169	0.531
675.499	414.751	80.006	19.995	100.254	19.442	36.728	0.507
675.999	414.991	80.006	19.994	100.254	19.431	37.385	0.476
676.500	415.228	80.006	19.995	100.254	19.423	37.933	0.471
677.000	415.506	80.005	19.997	100.254	19.415	38.387	0.497
677.499	415.762	80.005	19.995	100.249	19.408	38.829	0.525
677.999	416.032	80.004	19.997	100.242	19.400	39.348	0.529
678.499	416.277	80.005	19.996	100.235	19.392	39.879	0.520
678.999	416.573	80.005	19.996	100.226	19.384	40.333	0.528
679.499	416.820	80.004	19.996	100.219	19.382	40.500	0.542
679.999	417.032	80.006	19.995	100.213	19.368	41.379	0.501
680.499	417.313	80.005	19.995	100.212	19.361	41.766	0.476
680.999	417.588	80.005	19.996	100.212	19.352	42.343	0.525
681.499	417.839	80.006	19.995	100.213	19.345	42.787	0.541
682.000	418.091	80.005	19.996	100.212	19.338	43.219	0.515
682.500	418.334	80.004	19.996	100.211	19.329	43.780	0.498
682.999	418.649	80.006	19.996	100.211	19.322	44.199	0.526
683.499	418.874	80.006	19.995	100.212	19.316	44.617	0.549
683.999	419.135	80.005	19.996	100.210	19.306	45.194	0.513
684.499	419.395	80.003	19.996	100.211	19.301	45.561	0.503
684.999	419.637	80.006	19.995	100.214	19.290	46.240	0.511
685.500	419.896	80.005	19.996	100.214	19.281	46.765	0.502
686.000	420.163	80.005	19.995	100.214	19.270	47.435	0.513
686.499	420.412	80.005	19.995	100.216	19.260	48.068	0.520
686.999	420.679	80.008	19.995	100.216	19.250	48.742	0.516
687.500	420.910	80.006	19.995	100.217	19.240	49.366	0.508
688.000	421.195	80.007	19.996	100.217	19.226	50.196	0.507
688.499	421.469	80.005	19.995	100.218	19.218	50.747	0.537
688.999	421.690	80.006	19.995	100.217	19.203	51.655	0.527
689.499	421.975	80.007	19.996	100.217	19.194	52.201	0.501
689.999	422.215	80.007	19.995	100.217	19.181	53.009	0.515
690.499	422.487	80.006	19.996	100.217	19.171	53.670	0.518
690.999	422.729	80.006	19.995	100.217	19.160	54.321	0.513
691.499	422.987	80.005	19.996	100.216	19.148	55.084	0.507
691.999	423.215	80.007	19.996	100.216	19.132	56.127	0.493
692.499	423.492	80.007	19.995	100.217	19.123	56.638	0.496
693.000	423.729	80.008	19.995	100.217	19.114	57.246	0.510
693.500	423.981	80.007	19.996	100.213	19.098	58.232	0.501
694.000	424.275	80.007	19.995	100.211	19.086	58.969	0.517
694.499	424.533	80.008	19.996	100.211	19.073	59.794	0.549
694.999	424.780	80.008	19.994	100.208	19.058	60.712	0.529
695.499	425.037	80.008	19.994	100.200	19.046	61.441	0.505
696.000	425.275	80.006	19.996	100.196	19.033	62.292	0.500
696.500	425.521	80.007	19.995	100.190	19.020	63.099	0.489
696.999	425.810	80.004	19.995	100.183	19.003	64.168	0.509
697.499	426.065	80.006	19.993	100.182	18.988	65.060	0.539
697.999	426.324	80.005	19.995	100.189	18.972	66.071	0.529
698.499	426.625	80.006	19.995	100.196	18.960	66.815	0.537
698.999	426.857	80.005	19.995	100.201	18.942	67.956	0.546
699.499	427.114	80.005	19.995	100.207	18.926	68.921	0.511
699.999	427.364	80.006	19.995	100.207	18.909	69.978	0.498
700.499	427.620	80.006	19.996	100.204	18.886	71.462	0.507
700.999	427.852	80.006	19.995	100.198	18.871	72.397	0.497
701.499	428.102	80.007	19.995	100.194	18.851	73.621	0.485
701.999	428.371	80.004	19.996	100.191	18.828	75.096	0.500
702.499	428.662	80.006	19.996	100.193	18.806	76.468	0.540
702.999	428.908	80.006	19.997	100.196	18.786	77.696	0.549
703.499	429.158	80.005	19.994	100.200	18.768	78.848	0.517
703.999	429.437	80.003	19.997	100.206	18.747	80.135	0.512
704.499	429.664	80.005	19.995	100.206	18.730	81.204	0.517
704.999	429.943	80.004	19.997	100.200	18.711	82.417	0.506
705.500	430.227	80.006	19.996	100.194	18.690	83.694	0.535
706.000	430.438	80.007	19.997	100.189	18.674	84.683	0.529
706.500	430.718	80.002	19.996	100.180	18.654	85.943	0.493
706.999	430.983	80.007	19.997	100.172	18.633	87.262	0.518
707.499	431.231	80.005	19.998	100.171	18.612	88.586	0.529
707.999	431.479	80.004	19.995	100.166	18.594	89.649	0.505
708.499	431.754	80.006	19.997	100.157	18.568	91.293	0.510
708.999	431.989	80.006	19.998	100.151	18.547	92.590	0.516
709.500	432.264	80.006	19.999	100.147	18.523	94.058	0.510
710.000	432.516	80.005	19.997	100.140	18.496	95.772	0.518
710.500	432.801	80.005	19.996	100.137	18.470	97.388	0.532
711.000	433.054	80.004	19.994	100.138	18.445	98.973	0.537
711.500	433.318	80.005	19.997	100.144	18.419	100.597	0.527
711.999	433.546	80.006	19.997	100.151	18.390	102.390	0.504
712.499	433.837	80.007	19.996	100.159	18.364	104.069	0.506
713.000	434.083	80.006	19.996	100.169	18.333	106.007	0.529
713.500	434.349	80.007	19.996	100.175	18.305	107.724	0.525
713.999	434.593	80.005	19.995	100.178	18.275	109.631	0.510
714.499	434.829	80.005	19.996	100.179	18.247	111.381	0.495
714.999	435.052	80.006	19.996	100.177	18.219	113.141	0.470
715.500	435.342	80.008	19.995	100.174	18.188	115.038	0.486
716.000	435.621	80.008	19.996	100.174	18.157	116.993	0.541
716.499	435.852	80.008	19.995	100.171	18.129	118.756	0.539
716.999	436.093	80.007	19.996	100.165	18.100	120.546	0.491
717.500	436.346	80.008	19.996	100.158	18.073	122.224	0.483
718.000	436.602	80.007	19.996	100.150	18.043	124.064	0.502
718.499	436.875	80.009	19.996	100.137	18.012	125.966	0.519
718.999	437.090	80.008	19.995	100.123	17.978	128.083	0.509
719.499	437.385	80.008	19.996	100.113	17.946	130.030	0.499
719.999	437.608	80.008	19.995	100.104	17.911	132.260	0.514
720.499	437.865	80.009	19.996	100.097	17.873	134.628	0.499
720.999	438.085	80.008	19.995	100.097	17.830	137.306	0.478
721.499	438.351	80.008	19.995	100.103	17.793	139.596	0.482
721.999	438.598	80.008	19.996	100.111	17.752	142.152	0.500
722.499	438.793	80.007	19.995	100.117	17.714	144.526	0.477
722.999	439.059	80.009	19.996	100.120	17.670	147.239	0.451
723.499	439.306	80.008	19.994	100.124	17.624	150.152	0.487
723.999	439.579	80.009	19.997	100.125	17.579	152.932	0.516
724.499	439.810	80.004	19.995	100.125	17.536	155.654	0.512
724.999	440.075	80.007	19.995	100.135	17.491	158.425	0.500
725.499	440.297	80.006	19.995	100.142	17.442	161.455	0.492
725.999	440.580	80.007	19.995	100.143	17.399	164.153	0.496
726.499	440.836	80.004	19.994	100.144	17.349	167.279	0.522
726.999	441.079	80.005	19.994	100.142	17.303	170.117	0.519
727.499	441.330	80.005	19.994	100.130	17.257	172.981	0.496
727.999	441.545	80.006	19.993	100.119	17.205	176.214	0.480
728.499	441.788	80.006	19.996	100.106	17.151	179.525	0.462
728.999	442.057	80.006	19.995	100.091	17.098	182.875	0.485
729.499	442.327	80.004	19.996	100.073	17.040	186.435	0.526
729.999	442.588	80.005	19.995	100.055	16.991	189.537	0.535
730.499	442.824	80.006	19.994	100.052	16.937	192.897	0.514
730.999	443.047	80.005	19.995	100.055	16.877	196.633	0.478
731.499	443.323	80.005	19.994	100.055	16.819	200.205	0.479
731.999	443.553	80.005	19.994	100.054	16.758	203.973	0.503
732.499	443.805	80.005	19.996	100.056	16.694	207.907	0.494
733.000	444.076	80.005	19.994	100.044	16.628	211.906	0.502
733.500	444.304	80.006	19.994	100.032	16.564	215.884	0.510
733.999	444.554	80.006	19.995	100.033	16.498	219.967	0.488
734.500	444.787	80.006	19.996	100.031	16.429	224.221	0.481
735.000	445.031	80.005	19.994	100.026	16.361	228.432	0.481
735.499	445.310	80.004	19.995	100.037	16.293	232.583	0.500
735.999	445.529	80.005	19.994	100.040	16.224	236.815	0.510
736.500	445.754	80.006	19.995	100.018	16.150	241.405	0.471
737.000	446.052	80.005	19.995	100.021	16.079	245.762	0.484
737.499	446.299	80.008	19.994	100.011	15.997	250.864	0.534
737.999	446.511	80.005	19.995	99.990	15.916	255.945	0.501
738.499	446.750	80.006	19.995	99.979	15.834	260.975	0.455
738.999	447.005	80.005	19.996	99.979	15.749	266.197	0.473
739.499	447.234	80.006	19.996	99.959	15.669	271.045	0.489
739.999	447.536	80.005	19.995	99.970	15.588	276.009	0.508
740.499	447.769	80.006	19.995	99.965	15.509	280.846	0.533
740.999	448.033	80.005	19.996	99.972	15.433	285.548	0.516
741.499	448.289	80.004	19.993	99.981	15.353	290.561	0.508
741.999	448.530	80.004	19.995	99.968	15.272	295.660	0.509
742.499	448.773	80.006	19.994	99.942	15.191	300.813	0.491
742.999	449.037	80.003	19.996	99.925	15.112	305.915	0.495
743.499	449.243	80.004	19.995	99.884	15.035	310.877	0.488
743.999	449.521	80.005	19.995	99.838	14.953	316.112	0.477
744.499	449.796	80.004	19.994	99.826	14.882	320.683	0.518
744.999	450.016	80.006	19.994	99.818	14.807	325.319	0.524
745.499	450.260	80.005	19.996	99.808	14.729	330.044	0.479
745.999	450.558	80.006	19.995	99.791	14.654	334.475	0.503
746.499	450.796	80.006	19.994	99.771	14.587	338.485	0.540
746.999	451.009	80.004	19.995	99.741	14.526	342.034	0.494
747.499	451.268	80.006	19.995	99.717	14.472	345.074	0.461
747.999	451.538	80.005	19.995	99.703	14.414	348.425	0.500
748.499	451.778	80.004	19.995	99.707	14.364	351.428	0.520
749.000	451.969	80.005	19.997	99.720	14.302	355.136	0.471
749.500	452.255	80.006	19.995	99.701	14.236	359.133	0.454
749.999	452.467	80.005	19.994	99.663	14.164	363.624	0.488
750.499	452.722	80.006	19.995	99.620	14.089	368.362	0.482
751.000	452.940	80.005	19.994	99.585	14.010	373.186	0.470
751.500	453.232	80.005	19.994	99.559	13.926	378.434	0.492
751.999	453.451	80.005	19.994	99.561	13.843	383.597	0.511
752.499	453.709	80.004	19.994	99.577	13.760	388.696	0.494
752.999	453.985	80.005	19.995	99.601	13.678	394.256	0.506
753.499	454.205	80.005	19.994	99.649	13.599	399.522	0.515
753.999	454.467	80.006	19.995	99.707	13.521	404.439	0.489
754.499	454.732	80.005	19.995	99.764	13.446	409.144	0.504
754.999	455.021	80.005	19.994	99.806	13.375	413.612	0.540
755.499	455.239	80.005	19.995	99.842	13.298	417.978	0.531
755.999	455.474	80.005	19.995	99.833	13.227	422.027	0.480
756.499	455.710	80.005	19.994	99.788	13.153	426.249	0.462
756.999	455.920	80.004	19.994	99.729	13.078	430.591	0.459
757.499	456.171	80.003	19.994	99.673	13.004	434.907	0.454
757.999	456.475	80.004	19.996	99.596	12.933	438.950	0.508
758.499	456.697	80.003	19.995	99.503	12.862	443.134	0.540
758.999	456.907	80.004	19.996	99.433	12.796	447.192	0.479
759.500	457.142	80.005	19.995	99.409	12.726	451.518	0.439
760.000	457.392	80.005	19.995	99.375	12.662	455.439	0.465
760.499	457.646	80.004	19.994	99.343	12.595	459.609	0.495
760.999	457.923	80.003	19.995	99.361	12.525	464.015	0.518
761.499	458.189	80.004	19.995	99.373	12.453	468.503	0.538
761.999	458.406	80.004	19.994	99.351	12.373	473.440	0.513
762.499	458.647	80.006	19.995	99.362	12.293	478.256	0.470
762.999	458.906	80.003	19.994	99.373	12.216	482.663	0.479
763.499	459.146	80.004	19.994	99.368	12.139	486.930	0.499
763.999	459.432	80.004	19.994	99.483	12.069	490.760	0.512
764.499	459.665	80.004	19.996	99.567	12.003	494.397	0.523
764.999	459.854	80.005	19.995	99.592	11.942	498.103	0.471
765.499	460.120	80.004	19.995	99.605	11.886	501.688	0.438
765.999	460.369	80.004	19.995	99.612	11.838	504.938	0.485
766.499	460.613	80.004	19.992	99.513	11.786	508.669	0.504
766.999	460.860	80.004	19.995	99.421	11.734	512.634	0.492
767.500	461.098	80.005	19.995	99.342	11.681	516.772	0.488
768.000	461.335	80.005	19.995	99.276	11.626	520.880	0.480
768.500	461.539	80.003	19.994	99.211	11.578	524.352	0.458
769.000	461.805	80.005	19.996	99.132	11.528	527.666	0.456
769.500	462.096	80.006	19.995	99.087	11.488	530.137	0.514
770.000	462.367	80.005	19.996	99.077	11.455	531.913	0.559
770.500	462.584	80.006	19.994	99.081	11.437	532.698	0.525
771.000	462.795	80.004	19.995	99.072	11.435	532.435	0.458
771.500	463.098	80.004	19.996	99.075	11.449	531.268	0.471
772.000	463.314	80.006	19.995	99.090	11.474	529.374	0.516
772.499	463.593	80.005	19.995	99.103	11.508	527.051	0.507
772.999	463.808	80.005	19.994	99.102	11.541	524.925	0.495
773.499	464.071	80.007	19.994	99.069	11.572	523.002	0.486
773.999	464.273	80.007	19.996	98.997	11.592	521.802	0.472
774.499	464.492	80.006	19.995	98.896	11.605	521.024	0.443
774.999	464.756	80.007	19.996	98.796	11.609	520.886	0.452
775.499	464.970	80.006	19.997	98.720	11.602	521.332	0.481
775.999	465.212	80.007	19.995	98.699	11.600	521.587	0.467
776.499	465.478	80.006	19.997	98.728	11.599	521.712	0.482
776.999	465.708	80.005	19.997	98.792	11.603	521.477	0.502
777.499	465.977	80.007	19.996	98.896	11.618	520.529	0.498
778.000	466.218	80.007	19.996	99.039	11.642	519.004	0.505
778.500	466.472	80.006	19.995	99.201	11.659	517.987	0.502
778.999	466.688	80.006	19.994	99.338	11.682	516.574	0.482
779.499	466.978	80.005	19.996	99.432	11.703	515.324	0.488
779.999	467.223	80.005	19.995	99.476	11.721	514.240	0.520
780.500	467.470	80.006	19.996	99.467	11.736	513.320	0.514
781.000	467.752	80.006	19.995	99.417	11.747	512.710	0.511
781.500	467.967	80.006	19.996	99.354	11.766	511.555	0.513
782.000	468.237	80.006	19.996	99.287	11.785	510.330	0.491
782.499	468.465	80.004	19.994	99.223	11.808	508.638	0.492
782.999	468.689	80.005	19.994	99.163	11.837	506.595	0.475
783.499	468.961	80.005	19.996	99.122	11.863	504.796	0.474
783.999	469.204	80.006	19.995	99.105	11.894	502.734	0.505
784.499	469.503	80.006	19.997	99.102	11.928	500.578	0.528
784.999	469.738	80.006	19.995	99.108	11.960	498.720	0.538
785.499	470.006	80.007	19.996	99.121	11.991	496.981	0.519
785.999	470.259	80.006	19.996	99.134	12.023	495.062	0.512
786.499	470.513	80.006	19.993	99.145	12.054	493.175	0.514
786.999	470.798	80.006	19.996	99.161	12.085	491.234	0.523
787.499	471.017	80.007	19.995	99.171	12.118	489.220	0.521
787.999	471.247	80.006	19.996	99.174	12.154	487.002	0.476
788.500	471.498	80.006	19.994	99.170	12.188	484.867	0.465
789.000	471.770	80.005	19.994	99.169	12.231	482.216	0.502
789.499	471.974	80.006	19.995	99.173	12.270	479.860	0.500
789.999	472.252	80.007	19.995	99.181	12.317	476.982	0.479
790.499	472.497	80.007	19.995	99.189	12.366	474.080	0.502
790.999	472.741	80.006	19.994	99.195	12.415	471.181	0.506
791.499	473.009	80.007	19.995	99.198	12.469	467.908	0.501
791.999	473.257	80.006	19.996	99.203	12.523	464.754	0.514
792.499	473.551	80.006	19.996	99.206	12.587	460.972	0.529
792.999	473.796	80.006	19.996	99.205	12.648	457.356	0.540
793.499	474.058	80.005	19.996	99.148	12.718	453.197	0.522
793.999	474.302	80.007	19.997	99.095	12.792	448.813	0.506
794.499	474.559	80.007	19.994	99.064	12.875	443.860	0.503
794.999	474.855	80.006	19.995	99.034	12.958	438.815	0.527
795.499	475.131	80.006	19.996	99.023	13.052	433.139	0.563
795.999	475.377	80.008	19.997	99.052	13.154	426.963	0.547
796.499	475.625	80.008	19.996	99.088	13.258	420.555	0.508
796.999	475.865	80.008	19.996	99.100	13.369	413.776	0.491
797.499	476.125	80.007	19.997	99.104	13.487	406.535	0.494
797.999	476.375	80.006	19.993	99.094	13.604	399.390	0.506
798.499	476.630	80.008	19.996	99.107	13.732	391.477	0.508
798.999	476.897	80.008	19.993	99.101	13.858	383.785	0.513
799.500	477.135	80.008	19.994	99.095	13.988	375.777	0.513
800.000	477.386	80.008	19.994	99.102	14.121	367.616	0.497
800.499	477.655	80.008	19.996	99.112	14.257	359.211	0.505
801.000	477.926	80.007	19.996	99.121	14.394	350.777	0.530
801.500	478.186	80.007	19.996	99.141	14.532	342.252	0.536
801.999	478.450	80.006	19.997	99.166	14.672	333.642	0.527
802.499	478.674	80.006	19.996	99.191	14.816	324.732	0.506
802.999	478.963	80.006	19.997	99.223	14.957	315.997	0.501
803.500	479.213	80.006	19.997	99.265	15.104	306.943	0.526
804.000	479.488	80.006	19.995	99.300	15.241	298.464	0.532
804.499	479.705	80.006	19.996	99.340	15.383	289.653	0.509
804.999	479.976	80.004	19.996	99.386	15.526	280.802	0.490
805.499	480.260	80.005	19.999	99.427	15.662	272.323	0.522
805.999	480.457	80.006	19.994	99.454	15.796	264.013	0.518
806.500	480.718	80.006	19.993	99.486	15.933	255.491	0.470
807.000	480.957	80.005	19.998	99.516	16.067	247.092	0.479
807.499	481.251	80.005	19.996	99.540	16.205	238.405	0.516
807.999	481.525	80.005	19.996	99.560	16.339	229.745	0.550
808.499	481.768	80.004	19.995	99.583	16.471	221.125	0.543
808.999	482.036	80.003	19.996	99.609	16.603	212.610	0.514
809.499	482.298	80.003	19.997	99.630	16.730	204.504	0.520
810.000	482.583	80.004	19.998	99.656	16.859	196.379	0.538
810.500	482.797	80.004	19.998	99.682	16.984	188.817	0.523
810.999	483.070	80.003	19.995	99.709	17.105	181.603	0.493
811.499	483.329	80.005	19.996	99.733	17.221	174.701	0.509
812.000	483.603	80.004	19.995	99.758	17.338	167.597	0.533
812.500	483.826	80.004	19.996	99.780	17.450	160.783	0.516
812.999	484.109	80.003	19.998	99.804	17.560	153.960	0.502
813.499	484.359	80.006	19.996	99.826	17.668	147.277	0.519
813.999	484.657	80.004	19.994	99.848	17.769	141.031	0.541
814.499	484.886	80.005	19.997	99.868	17.868	134.835	0.537
814.999	485.139	80.005	19.996	99.890	17.969	128.577	0.504
815.499	485.378	80.004	19.995	99.908	18.061	122.821	0.487
815.999	485.665	80.004	19.998	99.921	18.153	117.076	0.509
816.499	485.927	80.003	19.995	99.934	18.238	111.773	0.538
817.000	486.158	80.003	19.995	99.944	18.325	106.382	0.521
817.500	486.470	80.005	19.995	99.946	18.404	101.423	0.518
817.999	486.687	80.005	19.995	99.943	18.481	96.633	0.536
818.499	486.986	80.005	19.994	99.917	18.559	91.763	0.522
818.999	487.218	80.005	19.997	99.785	18.633	87.140	0.523
819.499	487.485	80.005	19.995	99.597	18.700	82.987	0.515
819.999	487.734	80.004	19.996	99.440	18.766	78.849	0.508
820.499	488.017	80.004	19.995	99.324	18.826	75.179	0.524
820.999	488.286	80.005	19.993	99.278	18.888	71.291	0.542
821.499	488.525	80.004	19.995	99.369	18.946	67.692	0.530
821.999	488.749	80.005	19.996	99.538	19.002	64.227	0.486
822.499	489.029	80.005	19.996	99.686	19.056	60.851	0.484
822.999	489.283	80.005	19.996	99.806	19.109	57.505	0.519
823.499	489.563	80.004	19.995	99.882	19.155	54.639	0.533
823.999	489.800	80.006	19.994	99.928	19.201	51.797	0.525
824.499	490.042	80.003	19.996	99.955	19.243	49.152	0.498
824.999	490.287	80.005	19.992	99.977	19.284	46.604	0.483
825.499	490.550	80.005	19.996	99.991	19.323	44.126	0.498
825.999	490.790	80.004	19.995	99.996	19.362	41.724	0.506
826.499	491.052	80.004	19.994	100.003	19.396	39.606	0.502
826.999	491.342	80.004	19.994	100.013	19.432	37.350	0.527
827.499	491.582	80.005	19.995	100.022	19.462	35.455	0.541
827.999	491.842	80.004	19.996	100.031	19.490	33.703	0.515
828.500	492.076	80.005	19.994	100.029	19.520	31.841	0.497
829.000	492.383	80.004	19.997	100.011	19.550	29.939	0.517
829.500	492.657	80.004	19.995	100.010	19.573	28.547	0.561
829.999	492.874	80.004	19.994	100.017	19.600	26.834	0.536
830.499	493.137	80.004	19.998	100.032	19.620	25.588	0.485
830.999	493.358	80.005	19.993	100.064	19.644	24.075	0.482
831.500	493.631	80.004	19.997	100.113	19.665	22.741	0.490
832.000	493.914	80.004	19.995	100.143	19.685	21.521	0.526
832.499	494.169	80.004	19.996	100.160	19.705	20.281	0.547
833.000	494.437	80.003	19.995	100.169	19.723	19.155	0.530
833.500	494.669	80.005	19.994	100.176	19.742	17.949	0.511
833.999	494.894	80.005	19.994	100.177	19.759	16.888	0.478
834.499	495.165	80.004	19.993	100.177	19.774	15.963	0.477
835.000	495.434	80.003	19.996	100.177	19.791	14.910	0.518
835.500	495.659	80.003	19.997	100.178	19.805	14.036	0.517
835.999	495.920	80.005	19.999	100.177	19.817	13.237	0.490
836.499	496.161	80.005	19.994	100.178	19.829	12.547	0.494
836.999	496.390	80.004	19.992	100.177	19.843	11.648	0.486
837.499	496.688	80.005	19.996	100.178	19.851	11.156	0.498
837.999	496.945	80.004	19.994	100.178	19.865	10.274	0.541
838.499	497.196	80.005	19.994	100.177	19.874	9.726	0.532
838.999	497.422	80.005	19.995	100.177	19.883	9.143	0.493
839.500	497.681	80.004	19.997	100.177	19.891	8.626	0.481
840.000	497.949	80.003	19.994	100.176	19.901	8.003	0.506
840.499	498.206	80.005	19.995	100.177	19.911	7.395	0.526
841.000	498.439	80.006	19.994	100.177	19.919	6.904	0.508
841.500	498.689	80.004	19.996	100.177	19.925	6.491	0.487
842.000	498.943	80.004	19.996	100.176	19.930	6.189	0.493
842.500	499.221	80.004	19.995	100.176	19.937	5.741	0.518
842.999	499.468	80.005	19.997	100.175	19.946	5.232	0.528
843.499	499.716	80.005	19.996	100.174	19.949	5.000	0.510
843.999	499.955	80.004	19.995	100.174	19.951	4.872	0.491
844.499	500.227	80.004	19.994	100.175	19.959	4.397	0.499
844.999	500.485	80.004	19.995	100.176	19.962	4.180	0.520
845.499	500.715	80.005	19.996	100.177	19.965	3.993	0.509
845.999	500.975	80.004	19.995	100.182	19.969	3.766	0.489
846.499	501.222	80.005	19.994	100.183	19.970	3.715	0.498
846.999	501.492	80.004	19.996	100.187	19.977	3.287	0.512
847.499	501.728	80.005	19.995	100.187	19.980	3.103	0.512
847.999	502.007	80.005	19.996	100.187	19.982	2.939	0.510
848.499	502.271	80.006	19.995	100.182	19.981	2.997	0.529
848.999	502.517	80.005	19.996	100.181	19.988	2.577	0.527
849.500	502.761	80.006	19.994	100.177	19.988	2.582	0.500
850.000	503.017	80.005	19.995	100.177	19.987	2.638	0.495
850.500	503.256	80.006	19.995	100.176	19.991	2.388	0.498
851.000	503.510	80.006	19.994	100.175	19.993	2.270	0.494
851.499	503.742	80.007	19.993	100.176	19.993	2.244	0.489
852.000	504.033	80.006	19.994	100.175	19.995	2.171	0.505
852.500	504.249	80.006	19.995	100.174	19.995	2.150	0.515
852.999	504.502	80.006	19.993	100.174	19.997	1.988	0.488
853.499	504.758	80.006	19.994	100.174	19.997	2.041	0.489
853.999	504.991	80.006	19.995	100.175	19.996	2.067	0.499
854.499	505.248	80.007	19.994	100.176	19.999	1.910	0.489
854.999	505.530	80.007	19.995	100.179	20.001	1.777	0.515
855.499	505.758	80.005	19.996	100.185	20.003	1.620	0.525
856.000	506.061	80.007	19.995	100.191	20.002	1.700	0.521
856.500	506.308	80.007	19.995	100.198	20.000	1.823	0.540
856.999	506.546	80.006	19.995	100.204	20.005	1.487	0.517
857.499	506.810	80.007	19.994	100.207	20.006	1.463	0.493
857.999	507.081	80.008	19.996	100.210	20.008	1.337	0.518
858.499	507.322	80.007	19.995	100.212	20.009	1.268	0.524
858.999	507.601	80.007	19.997	100.211	20.010	1.233	0.516
859.499	507.829	80.006	19.996	100.212	20.008	1.345	0.513
859.999	508.070	80.006	19.992	100.213	20.014	0.941	0.488
860.500	508.315	80.007	19.995	100.213	20.009	1.243	0.477
861.000	508.627	80.007	19.994	100.214	20.010	1.210	0.521
861.500	508.846	80.007	19.994	100.214	20.012	1.098	0.544
862.000	509.093	80.008	19.995	100.213	20.012	1.088	0.499
862.499	509.338	80.007	19.995	100.213	20.013	1.043	0.479
862.999	509.626	80.005	19.995	100.214	20.015	0.907	0.512
863.499	509.892	80.005	19.995	100.213	20.014	0.961	0.544
863.999	510.104	80.007	19.995	100.214	20.012	1.105	0.517
864.499	510.405	80.006	19.995	100.217	20.014	0.975	0.496
864.999	510.689	80.007	19.995	100.218	20.016	0.802	0.549
865.499	510.916	80.005	19.996	100.219	20.016	0.849	0.548
865.999	511.170	80.006	19.994	100.221	20.017	0.787	0.495
866.500	511.414	80.006	19.995	100.227	20.018	0.712	0.489
867.000	511.687	80.005	19.996	100.230	20.017	0.751	0.507
867.500	511.946	80.006	19.995	100.235	20.016	0.831	0.525
867.999	512.202	80.006	19.996	100.242	20.014	0.963	0.524
868.500	512.459	80.006	19.996	100.246	20.015	0.891	0.515
869.000	512.699	80.004	19.996	100.248	20.019	0.610	0.505
869.499	512.987	80.006	19.996	100.247	20.017	0.777	0.512
869.999	513.240	80.004	19.995	100.244	20.021	0.497	0.534
870.499	513.512	80.005	19.995	100.244	20.019	0.645	0.533
870.999	513.789	80.005	19.996	100.244	20.017	0.765	0.537
871.499	514.044	80.006	19.995	100.245	20.018	0.715	0.541
871.999	514.323	80.006	19.995	100.247	20.019	0.633	0.533
872.499	514.600	80.006	19.996	100.251	20.020	0.582	0.545
872.999	514.882	80.007	19.996	100.249	20.019	0.645	0.557
873.499	515.122	80.005	19.995	100.247	20.022	0.452	0.540
873.999	515.439	80.005	19.995	100.246	20.018	0.695	0.540
874.499	515.637	80.006	19.995	100.247	20.020	0.598	0.536
874.999	515.916	80.007	19.998	100.248	20.020	0.606	0.496
875.499	516.194	80.006	19.996	100.250	20.019	0.661	0.517
875.999	516.457	80.006	19.996	100.252	20.021	0.521	0.548
876.499	516.718	80.005	19.999	100.252	20.023	0.389	0.532
876.999	517.007	80.006	19.994	100.252	20.020	0.606	0.537
877.499	517.252	80.006	19.993	100.252	20.021	0.524	0.542
877.999	517.542	80.007	19.995	100.253	20.019	0.615	0.534
878.499	517.785	80.007	19.996	100.253	20.017	0.772	0.534
878.999	518.066	80.007	19.995	100.252	20.022	0.454	0.529
879.499	518.299	80.007	19.995	100.252	20.021	0.485	0.519
879.999	518.533	80.007	19.993	100.252	20.021	0.533	0.491
880.499	518.796	80.009	19.996	100.252	20.020	0.582	0.482
880.999	519.087	80.008	19.995	100.253	20.022	0.463	0.526
881.499	519.366	80.007	19.995	100.255	20.020	0.598	0.562
881.999	519.624	80.007	19.995	100.255	20.018	0.697	0.553
882.499	519.873	80.008	19.995	100.255	20.020	0.601	0.522
882.999	520.171	80.008	19.997	100.255	20.021	0.526	0.527
883.499	520.449	80.010	19.992	100.255	20.023	0.391	0.562
884.000	520.695	80.009	19.994	100.254	20.023	0.360	0.551
884.500	520.965	80.008	19.995	100.253	20.021	0.517	0.520
884.999	521.240	80.008	19.993	100.254	20.019	0.610	0.530
885.500	521.486	80.008	19.995	100.254	20.025	0.268	0.533
886.000	521.770	80.008	19.996	100.255	20.024	0.306	0.525
886.499	522.016	80.007	19.993	100.256	20.021	0.516	0.530
886.999	522.279	80.008	19.994	100.256	20.018	0.731	0.520
887.500	522.537	80.008	19.995	100.255	20.018	0.721	0.516
888.000	522.806	80.007	19.993	100.255	20.019	0.645	0.524
888.500	523.014	80.006	19.995	100.255	20.019	0.611	0.501
888.999	523.323	80.007	19.994	100.254	20.018	0.729	0.497
889.499	523.579	80.007	19.994	100.254	20.020	0.591	0.541
889.999	523.862	80.007	19.995	100.254	20.019	0.664	0.552
890.499	524.136	80.005	19.996	100.256	20.021	0.502	0.548
890.999	524.366	80.004	19.996	100.256	20.020	0.596	0.530
891.499	524.644	80.005	19.995	100.256	20.017	0.736	0.506
891.999	524.908	80.003	19.996	100.257	20.021	0.502	0.525
892.500	525.161	80.003	19.997	100.259	20.017	0.734	0.529
893.000	525.463	80.004	19.996	100.262	20.018	0.729	0.536
893.499	525.721	80.004	20.000	100.269	20.018	0.719	0.558
893.999	525.995	80.004	19.995	100.268	20.019	0.661	0.547
894.499	526.217	80.005	19.995	100.268	20.020	0.553	0.514
894.999	526.473	80.004	19.995	100.266	20.019	0.633	0.487
895.499	526.738	80.004	19.997	100.262	20.021	0.533	0.499
895.999	527.006	80.003	19.997	100.256	20.017	0.782	0.527
896.500	527.267	80.004	19.996	100.256	20.017	0.779	0.531
897.000	527.560	80.003	19.996	100.256	20.020	0.598	0.542
897.500	527.801	80.004	19.996	100.255	20.022	0.452	0.544
898.000	528.105	80.004	19.995	100.255	20.021	0.495	0.539
898.499	528.345	80.004	19.998	100.255	20.020	0.558	0.545
898.999	528.600	80.004	19.996	100.256	20.018	0.676	0.520
899.499	528.893	80.004	19.997	100.255	20.019	0.630	0.521
899.999	529.161	80.004	19.995	100.255	20.020	0.589	0.554
900.499	529.398	80.004	19.995	100.255	20.021	0.534	0.533
900.999	529.671	80.005	19.998	100.257	20.020	0.580	0.508
901.499	529.923	80.004	19.996	100.257	20.023	0.411	0.518
901.999	530.209	80.003	19.997	100.260	20.022	0.451	0.532
902.499	530.456	80.003	19.996	100.259	20.022	0.458	0.535
902.999	530.748	80.004	19.994	100.261	20.023	0.411	0.536
903.499	531.004	80.003	19.996	100.261	20.020	0.550	0.543
903.999	531.271	80.004	19.996	100.262	20.023	0.398	0.536
904.499	531.534	80.005	19.997	100.260	20.023	0.360	0.527
904.999	531.803	80.004	19.994	100.262	20.022	0.454	0.530
905.499	532.056	80.005	19.995	100.260	20.024	0.311	0.527
905.999	532.324	80.006	19.995	100.258	20.024	0.341	0.522
906.499	532.596	80.006	19.996	100.256	20.020	0.563	0.531
906.999	532.842	80.005	19.996	100.254	20.026	0.208	0.529
907.499	533.142	80.005	19.994	100.252	20.024	0.306	0.532
907.999	533.377	80.005	19.998	100.251	20.023	0.403	0.541
908.499	533.645	80.005	19.997	100.251	20.023	0.408	0.519
908.999	533.925	80.005	19.994	100.250	20.022	0.481	0.525
909.499	534.230	80.005	19.995	100.251	20.021	0.507	0.566
910.000	534.485	80.007	19.993	100.252	20.022	0.437	0.573
910.500	534.750	80.005	19.999	100.253	20.022	0.442	0.540
911.000	535.013	80.007	19.993	100.253	20.023	0.415	0.524
911.499	535.290	80.005	19.995	100.254	20.024	0.345	0.534
911.999	535.568	80.007	19.996	100.255	20.023	0.386	0.548
912.500	535.845	80.005	19.997	100.256	20.022	0.454	0.555
913.000	536.097	80.007	19.994	100.259	20.020	0.575	0.542
913.500	536.361	80.005	19.993	100.260	20.024	0.304	0.522
914.000	536.616	80.005	19.995	100.259	20.024	0.302	0.517
914.499	536.927	80.005	19.994	100.257	20.026	0.220	0.542
914.999	537.176	80.006	19.993	100.256	20.026	0.207	0.563
915.499	537.462	80.005	19.997	100.254	20.025	0.266	0.548
915.999	537.700	80.007	19.994	100.254	20.023	0.377	0.530
916.499	537.964	80.006	19.995	100.253	20.020	0.551	0.513
916.999	538.258	80.006	19.993	100.253	20.023	0.415	0.530
917.499	538.520	80.005	19.994	100.252	20.022	0.435	0.557
917.999	538.737	80.006	19.995	100.252	20.023	0.415	0.518
918.499	539.039	80.007	19.996	100.252	20.022	0.454	0.499
918.999	539.333	80.006	19.994	100.252	20.022	0.429	0.557
919.499	539.585	80.006	19.995	100.254	20.027	0.152	0.571
919.999	539.842	80.006	19.995	100.255	20.023	0.379	0.528
920.499	540.098	80.004	19.995	100.254	20.025	0.256	0.511
920.999	540.380	80.004	19.995	100.254	20.020	0.551	0.525
921.499	540.646	80.005	19.996	100.254	20.024	0.324	0.543
921.999	540.887	80.004	19.994	100.256	20.025	0.239	0.527
922.499	541.145	80.006	19.994	100.256	20.023	0.381	0.503
923.000	541.401	80.003	19.995	100.257	20.024	0.321	0.507
923.500	541.695	80.005	19.996	100.257	20.023	0.415	0.532
924.000	541.934	80.005	19.997	100.257	20.026	0.222	0.541
924.499	542.243	80.005	19.995	100.253	20.024	0.343	0.540
924.999	542.474	80.005	19.996	100.252	20.028	0.079	0.544
925.499	542.738	80.004	19.995	100.252	20.024	0.307	0.518
926.000	543.024	80.005	19.996	100.252	20.029	0.019	0.522
926.500	543.269	80.004	19.995	100.253	20.025	0.234	0.540
927.000	543.493	80.006	19.994	100.253	20.025	0.258	0.500
927.500	543.791	80.005	19.995	100.253	20.027	0.142	0.496
928.000	544.029	80.005	19.995	100.252	20.029	-0.009	0.529
928.500	544.298	80.004	19.995	100.252	20.026	0.219	0.521
928.999	544.556	80.005	19.996	100.253	20.025	0.258	0.516
929.499	544.854	80.005	19.995	100.253	20.026	0.224	0.541
930.000	545.047	80.004	19.995	100.253	20.025	0.266	0.524
930.500	545.358	80.006	19.995	100.253	20.027	0.140	0.498
930.999	545.563	80.005	19.996	100.253	20.022	0.466	0.510
931.499	545.829	80.004	19.995	100.252	20.025	0.241	0.493
931.999	546.125	80.007	19.995	100.252	20.022	0.470	0.517
932.499	546.336	80.006	19.996	100.251	20.027	0.167	0.535
932.999	546.595	80.006	19.995	100.250	20.027	0.169	0.488
933.499	546.880	80.004	19.994	100.249	20.026	0.193	0.507
933.999	547.103	80.006	19.996	100.249	20.024	0.350	0.526
934.500	547.362	80.005	19.995	100.248	20.027	0.152	0.495
935.000	547.647	80.007	19.996	100.249	20.024	0.316	0.513
935.499	547.863	80.006	19.994	100.249	20.023	0.384	0.523
936.000	548.129	80.007	19.995	100.250	20.025	0.271	0.492
936.500	548.412	80.006	19.995	100.249	20.026	0.230	0.515
936.999	548.669	80.006	19.994	100.249	20.025	0.268	0.544
937.499	548.924	80.005	19.996	100.249	20.030	-0.039	0.526
937.999	549.175	80.007	19.994	100.250	20.026	0.229	0.509
938.499	549.394	80.007	19.995	100.249	20.026	0.208	0.488
938.999	549.701	80.006	19.996	100.251	20.026	0.210	0.498
939.499	549.904	80.008	19.995	100.251	20.027	0.120	0.518
939.999	550.177	80.006	19.995	100.251	20.027	0.167	0.493
940.499	550.480	80.007	19.995	100.251	20.026	0.191	0.526
940.999	550.662	80.007	19.994	100.251	20.025	0.287	0.531
941.499	550.926	80.007	19.997	100.251	20.026	0.171	0.466
941.999	551.156	80.007	19.996	100.251	20.026	0.210	0.470
942.499	551.402	80.006	19.996	100.251	20.027	0.166	0.485
942.999	551.687	80.007	19.994	100.251	20.024	0.311	0.503
943.499	551.896	80.007	19.995	100.252	20.029	-0.014	0.512
943.999	552.123	80.006	19.992	100.253	20.028	0.061	0.465
944.499	552.412	80.007	19.995	100.253	20.026	0.217	0.476
944.999	552.602	80.006	19.995	100.254	20.028	0.104	0.497
945.499	552.899	80.007	19.995	100.254	20.029	0.022	0.483
945.999	553.121	80.006	19.993	100.255	20.029	0.019	0.503
946.499	553.365	80.005	19.995	100.255	20.026	0.184	0.493
946.999	553.678	80.007	19.994	100.255	20.030	-0.022	0.512
947.500	553.906	80.006	19.995	100.256	20.027	0.143	0.549
948.000	554.174	80.007	19.997	100.256	20.028	0.050	0.519
948.499	554.399	80.007	19.994	100.256	20.026	0.229	0.494
948.999	554.629	80.008	19.995	100.256	20.027	0.111	0.474
949.500	554.902	80.007	19.993	100.256	20.025	0.260	0.479
950.000	555.136	80.006	19.994	100.256	20.024	0.311	0.504
950.499	555.386	80.007	19.996	100.255	20.027	0.154	0.495
950.999	555.647	80.006	19.994	100.256	20.025	0.241	0.498
951.499	555.856	80.005	19.993	100.256	20.027	0.114	0.490
951.999	556.136	80.007	19.995	100.254	20.027	0.126	0.479
952.499	556.376	80.007	19.996	100.254	20.029	0.039	0.505
952.999	556.609	80.006	19.996	100.253	20.026	0.229	0.497
953.500	556.889	80.005	19.995	100.253	20.024	0.328	0.492
954.000	557.111	80.007	19.996	100.253	20.029	-0.012	0.507
954.499	557.316	80.005	19.993	100.254	20.026	0.230	0.465
954.999	557.603	80.006	19.995	100.254	20.026	0.219	0.460
955.499	557.827	80.006	19.994	100.255	20.029	0.039	0.501
955.999	558.071	80.007	19.995	100.255	20.027	0.113	0.489
956.499	558.344	80.006	19.994	100.264	20.025	0.256	0.493
957.000	558.607	80.006	19.995	100.276	20.027	0.159	0.527
957.500	558.816	80.005	19.995	100.271	20.030	-0.053	0.504
958.000	559.061	80.006	19.995	100.263	20.026	0.203	0.463
958.500	559.311	80.007	19.995	100.260	20.027	0.149	0.474
959.000	559.552	80.006	19.995	100.251	20.028	0.099	0.493
959.499	559.790	80.007	19.995	100.238	20.028	0.082	0.486
960.000	560.050	80.006	19.995	100.242	20.028	0.072	0.489
960.500	560.305	80.007	19.997	100.252	20.028	0.082	0.506
960.999	560.555	80.007	19.995	100.263	20.029	0.036	0.510
961.500	560.790	80.006	19.996	100.264	20.029	-0.010	0.495
962.000	561.011	80.006	19.993	100.265	20.028	0.048	0.471
962.500	561.267	80.007	19.998	100.266	20.031	-0.131	0.466
963.000	561.492	80.006	19.995	100.263	20.030	-0.043	0.479
963.499	561.767	80.006	19.991	100.256	20.029	0.012	0.491
963.999	562.035	80.007	19.996	100.255	20.029	-0.015	0.522
964.499	562.285	80.007	19.995	100.255	20.032	-0.159	0.530
964.999	562.508	80.007	19.996	100.255	20.029	-0.015	0.495
965.499	562.745	80.006	19.995	100.255	20.032	-0.183	0.466
965.999	562.984	80.006	19.994	100.256	20.030	-0.036	0.468
966.499	563.234	80.008	19.995	100.255	20.032	-0.191	0.483
966.999	563.474	80.008	19.996	100.255	20.031	-0.106	0.490
967.499	563.712	80.006	19.996	100.255	20.032	-0.181	0.484
968.000	563.982	80.006	19.995	100.255	20.028	0.051	0.493
968.500	564.219	80.007	19.995	100.255	20.027	0.113	0.508
968.999	564.473	80.006	19.995	100.255	20.029	0.015	0.499
969.499	564.652	80.006	19.995	100.255	20.029	-0.003	0.462
969.999	564.923	80.006	19.996	100.255	20.031	-0.097	0.442
970.499	565.174	80.006	19.995	100.255	20.032	-0.159	0.486
970.999	565.421	80.007	19.995	100.254	20.034	-0.277	0.510
971.499	565.652	80.006	19.996	100.254	20.033	-0.237	0.488
971.999	565.915	80.005	19.995	100.253	20.033	-0.242	0.486
972.499	566.155	80.005	19.995	100.253	20.034	-0.324	0.499
972.999	566.440	80.006	19.995	100.252	20.031	-0.130	0.514
973.499	566.649	80.005	19.995	100.251	20.033	-0.222	0.509
973.999	566.933	80.006	19.995	100.251	20.034	-0.328	0.493
974.500	567.166	80.005	19.996	100.251	20.031	-0.130	0.505
975.000	567.412	80.004	19.995	100.250	20.032	-0.193	0.498
975.500	567.661	80.006	19.995	100.251	20.034	-0.323	0.487
976.000	567.880	80.005	19.995	100.254	20.035	-0.341	0.481
976.499	568.150	80.004	19.995	100.254	20.032	-0.171	0.478
976.999	568.404	80.005	19.994	100.254	20.031	-0.120	0.506
977.499	568.662	80.003	19.994	100.254	20.033	-0.234	0.518
978.000	568.891	80.005	19.995	100.254	20.032	-0.179	0.499
978.500	569.140	80.004	19.994	100.252	20.033	-0.266	0.483
978.999	569.403	80.006	19.997	100.253	20.034	-0.316	0.495
979.499	569.675	80.005	19.996	100.253	20.035	-0.340	0.524
979.999	569.914	80.005	19.996	100.253	20.034	-0.268	0.523
980.499	570.167	80.004	19.995	100.254	20.032	-0.203	0.501
980.999	570.415	80.004	19.996	100.255	20.034	-0.295	0.496
981.499	570.658	80.005	19.995	100.256	20.036	-0.418	0.496
981.999	570.926	80.003	19.996	100.257	20.032	-0.160	0.501
982.499	571.168	80.004	19.996	100.259	20.032	-0.178	0.511
982.999	571.379	80.003	19.995	100.259	20.034	-0.278	0.481
983.499	571.678	80.005	19.996	100.259	20.034	-0.299	0.482
983.999	571.945	80.004	19.996	100.257	20.031	-0.133	0.538
984.499	572.172	80.005	19.995	100.256	20.035	-0.333	0.530
984.999	572.440	80.004	19.995	100.253	20.034	-0.285	0.494
985.499	572.707	80.003	19.994	100.252	20.036	-0.435	0.514
985.999	572.971	80.005	19.998	100.251	20.032	-0.195	0.533
986.499	573.197	80.003	19.996	100.252	20.036	-0.425	0.511
986.999	573.480	80.004	19.996	100.252	20.034	-0.304	0.500
987.499	573.730	80.004	19.996	100.252	20.035	-0.338	0.521
987.999	573.971	80.006	19.997	100.252	20.033	-0.205	0.512
988.499	574.279	80.005	19.996	100.252	20.033	-0.254	0.520
988.999	574.559	80.004	19.997	100.252	20.034	-0.278	0.568
989.499	574.819	80.004	19.996	100.254	20.035	-0.341	0.564
989.999	575.109	80.006	19.996	100.259	20.034	-0.318	0.545
990.499	575.355	80.004	19.995	100.260	20.032	-0.157	0.543
990.999	575.639	80.004	19.996	100.260	20.034	-0.273	0.533
991.499	575.865	80.005	19.996	100.259	20.032	-0.195	0.520
991.999	576.133	80.005	19.996	100.256	20.032	-0.150	0.502
992.499	576.391	80.004	19.996	100.251	20.032	-0.157	0.510
992.999	576.655	80.005	19.995	100.249	20.030	-0.029	0.525
993.499	576.956	80.004	19.995	100.250	20.033	-0.210	0.544
993.999	577.185	80.005	19.996	100.250	20.034	-0.271	0.547
994.499	577.429	80.005	19.995	100.251	20.033	-0.229	0.502
994.999	577.690	80.003	19.996	100.251	20.031	-0.114	0.489
995.500	577.948	80.004	19.996	100.251	20.032	-0.172	0.512
996.000	578.204	80.004	19.997	100.251	20.032	-0.171	0.516
996.499	578.492	80.004	19.996	100.250	20.032	-0.196	0.529
996.999	578.761	80.003	19.995	100.250	20.034	-0.297	0.551
997.499	579.031	80.004	19.996	100.251	20.034	-0.285	0.548
997.999	579.290	80.004	19.996	100.250	20.031	-0.092	0.533
998.499	579.553	80.004	19.996	100.250	20.034	-0.268	0.526
998.999	579.804	80.004	19.995	100.250	20.032	-0.184	0.518
999.499	580.064	80.005	19.994	100.249	20.032	-0.160	0.513
999.999	580.327	80.004	19.997	100.249	20.031	-0.099	0.517
1000.499	580.616	80.004	19.997	100.250	20.035	-0.338	0.537
1001.000	580.824	80.005	19.995	100.251	20.033	-0.248	0.525
1001.500	581.100	80.004	19.996	100.251	20.032	-0.201	0.490
1001.999	581.372	80.004	19.996	100.252	20.033	-0.220	0.515
1002.499	581.636	80.005	19.996	100.252	20.031	-0.087	0.542
1002.999	581.882	80.003	19.995	100.251	20.033	-0.234	0.523
1003.500	582.192	80.005	19.996	100.251	20.034	-0.294	0.533
1004.000	582.398	80.003	19.994	100.251	20.034	-0.300	0.536
1004.499	582.668	80.004	19.995	100.251	20.033	-0.222	0.496
1004.999	582.976	80.004	19.996	100.251	20.034	-0.321	0.527
1005.499	583.186	80.005	19.995	100.252	20.035	-0.391	0.548
1005.999	583.442	80.004	19.995	100.253	20.033	-0.210	0.492
1006.499	583.736	80.004	19.995	100.253	20.038	-0.522	0.508
1006.999	583.992	80.004	19.996	100.254	20.031	-0.135	0.550
1007.500	584.262	80.003	19.995	100.254	20.038	-0.548	0.538
1008.000	584.518	80.005	19.995	100.254	20.036	-0.398	0.526
1008.499	584.780	80.003	19.996	100.254	20.036	-0.393	0.522
1008.999	585.034	80.003	19.995	100.254	20.032	-0.186	0.517
1009.499	585.293	80.004	19.996	100.254	20.039	-0.587	0.515
1009.999	585.582	80.003	19.995	100.254	20.035	-0.377	0.531
1010.499	585.818	80.005	19.994	100.256	20.032	-0.152	0.537
1010.999	586.118	80.004	19.993	100.257	20.034	-0.324	0.530
1011.499	586.386	80.003	19.995	100.258	20.035	-0.355	0.551
1011.999	586.651	80.004	19.994	100.258	20.032	-0.159	0.550
1012.499	586.903	80.006	19.995	100.258	20.048	-1.199	0.526
1012.999	587.161	80.003	19.995	100.257	20.050	-1.328	0.514
1013.499	587.389	80.004	19.995	100.256	20.040	-0.664	0.498
1013.999	587.655	80.005	19.998	100.256	20.027	0.130	0.489
1014.499	587.959	80.003	19.995	100.256	20.029	-0.010	0.532
1014.999	588.222	80.006	19.994	100.256	20.030	-0.063	0.569
1015.499	588.428	80.005	19.996	100.256	20.031	-0.085	0.518
1015.999	588.735	80.005	19.996	100.256	20.030	-0.034	0.491
1016.499	588.985	80.004	19.996	100.256	20.029	-0.012	0.535
1016.999	589.258	80.005	19.995	100.257	20.034	-0.307	0.540
1017.499	589.502	80.005	19.996	100.258	20.031	-0.097	0.520
1017.999	589.797	80.006	19.995	100.259	20.032	-0.201	0.528
1018.499	590.019	80.006	19.994	100.258	20.025	0.254	0.529
1018.999	590.280	80.005	19.995	100.258	20.033	-0.205	0.500
1019.499	590.562	80.006	19.996	100.257	20.033	-0.229	0.513
1019.999	590.845	80.005	19.995	100.256	20.034	-0.280	0.554
1020.499	591.094	80.006	19.996	100.256	20.032	-0.164	0.548
1020.999	591.330	80.004	19.995	100.256	20.031	-0.121	0.509
1021.499	591.588	80.006	19.995	100.255	20.031	-0.085	0.490
1021.999	591.856	80.006	19.995	100.255	20.031	-0.120	0.510
1022.499	592.115	80.007	19.994	100.254	20.031	-0.133	0.526
1022.999	592.388	80.006	19.995	100.254	20.030	-0.056	0.529
1023.499	592.653	80.007	19.994	100.254	20.032	-0.150	0.535
1024.000	592.931	80.005	19.994	100.254	20.035	-0.384	0.541
1024.499	593.184	80.005	19.995	100.254	20.033	-0.208	0.537
1024.999	593.459	80.005	19.995	100.254	20.035	-0.348	0.530
1025.499	593.726	80.006	19.995	100.254	20.029	0.022	0.535
1025.999	593.956	80.005	19.995	100.254	20.032	-0.166	0.520
1026.499	594.213	80.005	19.994	100.254	20.032	-0.186	0.492
1026.999	594.436	80.006	19.995	100.254	20.031	-0.137	0.483
1027.499	594.702	80.005	19.994	100.254	20.032	-0.178	0.484
1027.999	595.007	80.006	19.995	100.254	20.035	-0.359	0.530
1028.499	595.245	80.005	19.997	100.255	20.031	-0.120	0.557
1029.000	595.504	80.007	19.995	100.255	20.031	-0.099	0.520
1029.499	595.890	80.005	19.995	100.254	20.031	-0.082	0.571
1029.999	596.028	80.005	19.996	100.254	20.035	-0.335	0.585
1030.499	596.274	80.005	19.995	100.254	20.033	-0.263	0.454
1030.999	596.592	80.006	19.995	100.254	20.036	-0.439	0.474
1031.499	596.922	80.004	19.994	100.255	20.036	-0.406	0.605
1031.999	597.108	80.004	19.996	100.255	20.035	-0.355	0.582
1032.499	597.322	80.005	19.996	100.256	20.035	-0.370	0.458
1032.999	597.628	80.006	19.997	100.255	20.035	-0.333	0.460
1033.499	597.759	80.005	19.995	100.255	20.034	-0.316	0.478
1033.999	598.122	80.004	19.996	100.255	20.034	-0.300	0.465
1034.499	598.406	80.006	19.995	100.254	20.035	-0.340	0.571
1034.999	598.623	80.005	19.994	100.255	20.032	-0.159	0.574
1035.499	598.834	80.006	19.994	100.255	20.035	-0.382	0.464
1035.999	599.129	80.007	19.996	100.256	20.035	-0.347	0.467
1036.499	599.367	80.006	19.995	100.255	20.036	-0.401	0.520
1036.999	599.644	80.006	19.995	100.254	20.034	-0.314	0.524
1037.499	599.856	80.006	19.995	100.254	20.034	-0.275	0.502
1037.999	600.146	80.006	19.995	100.253	20.035	-0.335	0.495
1038.499	600.398	80.008	19.994	100.252	20.036	-0.451	0.522
1038.999	600.662	80.008	19.995	100.252	20.033	-0.230	0.529
1039.499	600.871	80.006	19.994	100.250	20.036	-0.403	0.494
1039.999	601.102	80.008	19.994	100.247	20.036	-0.423	0.456
1040.499	601.362	80.007	19.995	100.247	20.035	-0.340	0.466
1040.999	601.655	80.006	19.995	100.247	20.035	-0.360	0.522
1041.499	601.858	80.009	19.994	100.247	20.032	-0.171	0.524
1041.999	602.133	80.008	19.995	100.248	20.035	-0.384	0.487
1042.499	602.363	80.008	19.994	100.251	20.035	-0.381	0.492
1042.999	602.615	80.006	19.995	100.251	20.033	-0.258	0.494
1043.499	602.889	80.007	19.994	100.251	20.036	-0.399	0.504
1043.999	603.126	80.007	19.994	100.252	20.034	-0.273	0.518
1044.499	603.374	80.010	19.994	100.252	20.038	-0.526	0.498
1044.999	603.586	80.008	19.994	100.248	20.033	-0.249	0.472
1045.499	603.862	80.007	19.994	100.245	20.034	-0.314	0.474
1045.999	604.107	80.008	19.995	100.243	20.036	-0.410	0.505
1046.499	604.332	80.008	19.994	100.237	20.033	-0.241	0.496
1046.999	604.581	80.010	19.993	100.235	20.036	-0.451	0.472
1047.499	604.832	80.007	19.995	100.236	20.035	-0.357	0.487
1047.999	605.038	80.009	19.993	100.239	20.036	-0.423	0.479
1048.499	605.317	80.007	19.995	100.240	20.034	-0.270	0.471
1048.999	605.570	80.008	19.995	100.244	20.034	-0.287	0.508
1049.499	605.768	80.008	19.995	100.244	20.030	-0.038	0.491
1049.999	606.012	80.008	19.995	100.243	20.031	-0.109	0.447
1050.499	606.307	80.007	19.995	100.242	20.032	-0.184	0.491
1050.999	606.533	80.007	19.995	100.242	20.031	-0.102	0.529
1051.499	606.737	80.007	19.996	100.244	20.032	-0.193	0.475
1051.999	607.022	80.006	19.995	100.247	20.032	-0.150	0.460
1052.499	607.247	80.007	19.995	100.250	20.029	0.015	0.499
1052.999	607.476	80.006	19.996	100.251	20.030	-0.046	0.482
1053.499	607.725	80.007	19.996	100.249	20.030	-0.063	0.466
1053.999	607.951	80.007	19.995	100.248	20.031	-0.118	0.476
1054.499	608.229	80.006	19.994	100.248	20.028	0.077	0.489
1054.999	608.426	80.006	19.995	100.248	20.029	-0.007	0.489
1055.499	608.710	80.005	19.995	100.249	20.030	-0.038	0.478
1055.999	608.915	80.005	19.995	100.251	20.031	-0.108	0.485
1056.499	609.192	80.004	19.995	100.252	20.032	-0.198	0.486
1056.999	609.414	80.005	19.995	100.252	20.029	0.015	0.490
1057.499	609.629	80.005	19.995	100.251	20.034	-0.283	0.468
1057.999	609.907	80.004	19.996	100.250	20.028	0.060	0.465
1058.499	610.108	80.006	19.995	100.250	20.031	-0.084	0.486
1058.999	610.354	80.005	19.995	100.250	20.031	-0.096	0.463
1059.499	610.591	80.005	19.995	100.250	20.033	-0.232	0.465
1059.999	610.827	80.005	19.996	100.250	20.033	-0.213	0.478
1060.499	611.062	80.006	19.996	100.251	20.031	-0.082	0.472
1060.999	611.318	80.004	19.997	100.251	20.028	0.096	0.481
1061.499	611.536	80.005	19.995	100.251	20.030	-0.063	0.483
1061.999	611.820	80.006	19.997	100.251	20.030	-0.038	0.488
1062.499	612.042	80.004	19.996	100.252	20.033	-0.251	0.504
1063.000	612.272	80.005	19.997	100.252	20.033	-0.227	0.479
1063.499	612.554	80.005	19.994	100.252	20.033	-0.217	0.482
1063.999	612.687	80.005	19.996	100.251	20.031	-0.092	0.464
1064.499	612.997	80.006	19.996	100.251	20.033	-0.212	0.429
1064.999	613.205	80.005	19.996	100.250	20.033	-0.266	0.480
1065.499	613.454	80.004	19.996	100.250	20.029	0.024	0.487
1065.999	613.675	80.005	19.995	100.249	20.031	-0.084	0.464
1066.499	613.912	80.005	19.995	100.247	20.032	-0.198	0.464
1066.999	614.181	80.006	19.994	100.249	20.033	-0.242	0.482
1067.499	614.386	80.006	19.995	100.250	20.030	-0.053	0.490
1067.999	614.637	80.006	19.995	100.252	20.030	-0.077	0.465
1068.499	614.842	80.006	19.995	100.253	20.030	-0.031	0.456
1068.999	615.150	80.007	19.993	100.255	20.032	-0.172	0.485
1069.499	615.334	80.004	19.994	100.254	20.030	-0.068	0.503
1069.999	615.641	80.005	19.995	100.254	20.030	-0.020	0.492
1070.499	615.854	80.004	19.996	100.253	20.028	0.046	0.505
1070.999	616.118	80.005	19.996	100.254	20.033	-0.207	0.499
1071.499	616.333	80.005	19.994	100.254	20.033	-0.237	0.478
1071.999	616.572	80.005	19.996	100.254	20.034	-0.282	0.466
1072.499	616.871	80.004	19.996	100.254	20.033	-0.213	0.496
1072.999	617.090	80.005	19.995	100.254	20.033	-0.244	0.528
1073.499	617.309	80.006	19.995	100.254	20.034	-0.277	0.478
1073.999	617.613	80.006	19.995	100.254	20.034	-0.271	0.481
1074.499	617.842	80.005	19.994	100.254	20.032	-0.159	0.528
1074.999	618.050	80.005	19.995	100.254	20.032	-0.159	0.485
1075.499	618.298	80.006	19.996	100.254	20.034	-0.326	0.446
1075.999	618.599	80.005	19.994	100.254	20.031	-0.135	0.502
1076.499	618.839	80.005	19.997	100.255	20.033	-0.224	0.545
1076.999	619.058	80.006	19.995	100.256	20.031	-0.092	0.500
1077.499	619.312	80.006	19.995	100.257	20.034	-0.314	0.466
1077.999	619.550	80.005	19.995	100.258	20.033	-0.241	0.482
1078.499	619.794	80.005	19.995	100.260	20.033	-0.208	0.487
1078.999	620.079	80.006	19.995	100.260	20.033	-0.239	0.506
1079.499	620.339	80.007	19.994	100.261	20.029	-0.009	0.537
1079.999	620.579	80.005	19.998	100.261	20.033	-0.246	0.522
1080.499	620.784	80.006	19.994	100.262	20.033	-0.232	0.472
1080.999	621.085	80.005	19.995	100.263	20.031	-0.142	0.475
1081.499	621.376	80.005	19.995	100.263	20.033	-0.215	0.549
1081.999	621.570	80.004	19.995	100.261	20.031	-0.128	0.539
1082.499	621.848	80.004	19.997	100.261	20.035	-0.336	0.479
1082.999	622.102	80.005	19.996	100.258	20.033	-0.249	0.502
1083.499	622.365	80.006	19.997	100.255	20.030	-0.065	0.524
1083.999	622.620	80.003	19.996	100.254	20.032	-0.188	0.518
1084.499	622.875	80.004	19.996	100.254	20.035	-0.386	0.514
1084.999	623.124	80.004	19.995	100.254	20.034	-0.312	0.507
1085.499	623.407	80.003	19.996	100.254	20.037	-0.456	0.518
1085.999	623.644	80.004	19.996	100.254	20.037	-0.470	0.526
1086.499	623.881	80.004	19.996	100.254	20.036	-0.393	0.497
1087.000	624.176	80.002	19.996	100.254	20.036	-0.449	0.503
1087.499	624.447	80.003	19.996	100.255	20.033	-0.225	0.549
1087.999	624.717	80.003	19.997	100.255	20.036	-0.413	0.553
1088.499	624.944	80.002	19.998	100.256	20.036	-0.442	0.519
1088.999	625.201	80.002	19.996	100.255	20.035	-0.365	0.491
1089.499	625.449	80.003	19.996	100.256	20.035	-0.335	0.495
1089.999	625.713	80.003	19.996	100.254	20.031	-0.128	0.508
1090.499	625.971	80.003	19.996	100.255	20.034	-0.297	0.516
1090.999	626.228	80.004	19.995	100.255	20.034	-0.275	0.518
1091.499	626.471	80.002	19.994	100.255	20.034	-0.277	0.508
1091.999	626.736	80.003	19.993	100.256	20.034	-0.319	0.504
1092.499	626.995	80.003	19.994	100.257	20.032	-0.184	0.516
1092.999	627.249	80.004	19.996	100.257	20.032	-0.203	0.519
1093.499	627.515	80.003	19.995	100.257	20.033	-0.265	0.516
1093.999	627.758	80.004	19.996	100.258	20.035	-0.376	0.514
1094.499	628.013	80.003	19.995	100.258	20.031	-0.126	0.504
1094.999	628.269	80.003	19.997	100.257	20.033	-0.227	0.504
1095.500	628.554	80.004	19.996	100.257	20.034	-0.270	0.526
1095.999	628.816	80.005	19.995	100.258	20.033	-0.212	0.544
1096.499	629.082	80.005	19.997	100.257	20.035	-0.381	0.538
1096.999	629.326	80.004	19.995	100.257	20.034	-0.302	0.519
1097.499	629.600	80.006	19.996	100.257	20.033	-0.256	0.514
1097.999	629.889	80.005	19.996	100.257	20.037	-0.492	0.541
1098.499	630.128	80.006	19.995	100.256	20.037	-0.514	0.546
1098.999	630.395	80.006	19.995	100.256	20.034	-0.330	0.517
1099.499	630.690	80.005	19.995	100.256	20.036	-0.415	0.534
1099.999	630.957	80.006	19.995	100.256	20.035	-0.391	0.562
1100.499	631.193	80.006	19.994	100.256	20.034	-0.326	0.532
1100.999	631.462	80.007	19.994	100.257	20.035	-0.362	0.504
1101.499	631.703	80.007	19.994	100.256	20.035	-0.389	0.508
1101.999	631.952	80.006	19.995	100.256	20.036	-0.413	0.500
1102.499	632.216	80.007	19.995	100.255	20.038	-0.529	0.502
1102.999	632.474	80.007	19.994	100.255	20.034	-0.324	0.518
1103.499	632.746	80.006	19.995	100.253	20.036	-0.429	0.526
1103.999	632.993	80.007	19.994	100.252	20.036	-0.434	0.524
1104.499	633.255	80.009	19.994	100.252	20.034	-0.280	0.514
1104.999	633.527	80.006	19.995	100.254	20.035	-0.333	0.521
1105.499	633.757	80.007	19.995	100.254	20.033	-0.239	0.517
1105.999	634.035	80.007	19.995	100.255	20.035	-0.381	0.505
1106.499	634.312	80.008	19.995	100.255	20.034	-0.297	0.532
1106.999	634.555	80.008	19.994	100.254	20.033	-0.234	0.538
1107.499	634.838	80.007	19.995	100.252	20.033	-0.234	0.523
1107.999	635.075	80.007	19.994	100.250	20.035	-0.377	0.523
1108.499	635.340	80.006	19.993	100.250	20.032	-0.190	0.511
1108.999	635.613	80.006	19.995	100.250	20.031	-0.099	0.520
1109.499	635.859	80.007	19.994	100.249	20.034	-0.304	0.528
1109.999	636.118	80.006	19.995	100.250	20.031	-0.109	0.512
1110.499	636.382	80.007	19.994	100.250	20.032	-0.176	0.514
1110.999	636.621	80.008	19.995	100.251	20.032	-0.149	0.513
1111.499	636.913	80.006	19.995	100.251	20.034	-0.330	0.517
1111.999	637.194	80.006	19.994	100.252	20.033	-0.225	0.552
1112.500	637.423	80.007	19.994	100.252	20.032	-0.150	0.542
1112.999	637.684	80.006	19.996	100.253	20.034	-0.297	0.500
1113.499	637.951	80.006	19.995	100.253	20.034	-0.287	0.509
1113.999	638.192	80.006	19.994	100.254	20.030	-0.038	0.518
1114.499	638.434	80.006	19.995	100.255	20.033	-0.230	0.495
1114.999	638.705	80.006	19.996	100.256	20.032	-0.149	0.498
1115.499	638.937	80.005	19.993	100.259	20.033	-0.210	0.508
1115.999	639.203	80.006	19.996	100.260	20.036	-0.398	0.501
1116.499	639.464	80.006	19.993	100.260	20.036	-0.410	0.513
1116.999	639.696	80.006	19.995	100.259	20.033	-0.225	0.510
1117.499	639.957	80.005	19.997	100.258	20.036	-0.394	0.493
1117.999	640.213	80.005	19.996	100.255	20.034	-0.307	0.505
1118.499	640.432	80.007	19.995	100.254	20.032	-0.200	0.496
1118.999	640.699	80.006	19.995	100.254	20.034	-0.323	0.480
1119.499	640.982	80.007	19.995	100.253	20.033	-0.254	0.518
1119.999	641.189	80.006	19.995	100.253	20.033	-0.205	0.520
1120.499	641.458	80.007	19.995	100.252	20.032	-0.179	0.483
1120.999	641.669	80.005	19.995	100.251	20.032	-0.143	0.478
1121.499	641.962	80.006	19.995	100.250	20.031	-0.116	0.492
1121.999	642.200	80.008	19.995	100.250	20.033	-0.220	0.517
1122.499	642.451	80.006	19.995	100.251	20.032	-0.172	0.509
1122.999	642.703	80.008	19.994	100.252	20.034	-0.270	0.496
1123.499	642.933	80.006	19.995	100.252	20.034	-0.300	0.493
1123.999	643.200	80.008	19.995	100.252	20.032	-0.196	0.489
1124.499	643.444	80.007	19.994	100.251	20.034	-0.287	0.504
1124.999	643.679	80.008	19.994	100.251	20.036	-0.394	0.495
1125.499	643.946	80.008	19.994	100.251	20.033	-0.254	0.491
1125.999	644.219	80.008	19.996	100.251	20.031	-0.106	0.521
1126.499	644.419	80.008	19.995	100.251	20.036	-0.411	0.507
1126.999	644.694	80.008	19.997	100.252	20.035	-0.350	0.474
1127.499	644.928	80.008	19.994	100.254	20.035	-0.359	0.492
1127.999	645.187	80.007	19.994	100.255	20.035	-0.345	0.501
1128.499	645.420	80.008	19.994	100.257	20.034	-0.273	0.492
1128.999	645.697	80.008	19.994	100.260	20.034	-0.321	0.501
1129.499	645.963	80.008	19.995	100.264	20.033	-0.219	0.527
1130.000	646.197	80.008	19.994	100.265	20.033	-0.258	0.522
1130.499	646.473	80.009	19.994	100.269	20.036	-0.410	0.505
1130.999	646.712	80.009	19.994	100.271	20.036	-0.449	0.512
1131.499	646.974	80.008	19.995	100.273	20.033	-0.244	0.508
1131.999	647.221	80.008	19.994	100.270	20.033	-0.215	0.505
1132.499	647.478	80.007	19.996	100.268	20.033	-0.242	0.506
1132.999	647.732	80.009	19.997	100.263	20.035	-0.345	0.508
1133.499	647.996	80.008	19.992	100.259	20.033	-0.220	0.515
1133.999	648.213	80.009	19.995	100.255	20.031	-0.128	0.499
1134.499	648.506	80.008	19.994	100.253	20.032	-0.183	0.495
1134.999	648.684	80.007	19.994	100.253	20.032	-0.150	0.491
1135.499	648.937	80.007	19.991	100.252	20.031	-0.137	0.451
1136.000	649.220	80.006	19.995	100.253	20.029	0.010	0.484
1136.499	649.462	80.006	19.994	100.253	20.034	-0.297	0.530
1136.999	649.702	80.006	19.995	100.253	20.036	-0.405	0.503
1137.499	649.997	80.007	19.994	100.253	20.039	-0.598	0.508
1137.999	650.232	80.006	19.994	100.252	20.034	-0.316	0.533
1138.499	650.502	80.005	19.994	100.252	20.036	-0.411	0.518
1138.999	650.752	80.006	19.994	100.251	20.034	-0.268	0.513
1139.499	651.042	80.004	19.994	100.251	20.034	-0.290	0.530
1139.999	651.248	80.005	19.993	100.251	20.035	-0.343	0.518
1140.499	651.525	80.006	19.995	100.252	20.039	-0.592	0.489
1140.999	651.791	80.005	19.995	100.253	20.036	-0.417	0.513
1141.499	652.031	80.005	19.996	100.253	20.037	-0.493	0.524
1141.999	652.275	80.006	19.994	100.253	20.038	-0.521	0.495
1142.499	652.535	80.006	19.995	100.253	20.037	-0.476	0.494
1142.999	652.818	80.005	19.994	100.253	20.034	-0.321	0.523
1143.499	653.023	80.006	19.995	100.252	20.036	-0.430	0.515
1143.999	653.309	80.005	19.995	100.253	20.034	-0.319	0.489
1144.499	653.515	80.005	19.994	100.253	20.034	-0.330	0.491
1144.999	653.765	80.007	19.994	100.254	20.032	-0.174	0.474
1145.499	654.044	80.006	19.994	100.254	20.033	-0.210	0.493
1145.999	654.235	80.006	19.994	100.254	20.034	-0.311	0.500
1146.499	654.523	80.005	19.995	100.254	20.034	-0.312	0.475
1146.999	654.765	80.005	19.995	100.252	20.035	-0.364	0.504
1147.499	655.016	80.007	19.995	100.248	20.035	-0.350	0.511
1147.999	655.256	80.006	19.994	100.247	20.035	-0.347	0.492
1148.499	655.533	80.006	19.994	100.244	20.034	-0.309	0.504
1148.999	655.790	80.005	19.994	100.243	20.030	-0.072	0.525
1149.499	656.000	80.007	19.995	100.244	20.033	-0.242	0.500
1149.999	656.317	80.005	19.995	100.248	20.033	-0.254	0.497
1150.499	656.547	80.005	19.996	100.249	20.035	-0.388	0.537
1150.999	656.805	80.005	19.996	100.250	20.032	-0.203	0.518
1151.499	657.067	80.005	19.995	100.249	20.032	-0.184	0.504
1151.999	657.336	80.005	19.995	100.250	20.035	-0.388	0.525
1152.499	657.586	80.007	19.995	100.249	20.033	-0.208	0.525
1152.999	657.823	80.006	19.995	100.249	20.034	-0.297	0.503
1153.499	658.079	80.005	19.995	100.251	20.035	-0.331	0.490
1153.999	658.300	80.005	19.995	100.253	20.035	-0.367	0.485
1154.499	658.559	80.005	19.994	100.254	20.032	-0.183	0.479
1154.999	658.853	80.006	19.995	100.254	20.035	-0.333	0.517
1155.499	659.078	80.005	19.995	100.254	20.032	-0.188	0.536
1155.999	659.361	80.006	19.995	100.254	20.029	-0.012	0.514
1156.499	659.579	80.006	19.995	100.254	20.033	-0.236	0.504
1156.999	659.820	80.005	19.994	100.253	20.033	-0.227	0.480
1157.499	660.089	80.006	19.995	100.254	20.035	-0.347	0.484
1157.999	660.348	80.006	19.994	100.253	20.035	-0.360	0.519
1158.499	660.572	80.006	19.995	100.251	20.036	-0.449	0.506
1158.999	660.826	80.006	19.995	100.250	20.035	-0.353	0.481
1159.499	661.054	80.005	19.995	100.250	20.038	-0.543	0.480
1159.999	661.333	80.005	19.994	100.251	20.032	-0.178	0.494
1160.499	661.584	80.006	19.994	100.251	20.035	-0.343	0.518
1160.999	661.817	80.005	19.995	100.253	20.033	-0.253	0.507
1161.499	662.112	80.007	19.995	100.254	20.032	-0.167	0.506
1161.999	662.343	80.006	19.995	100.255	20.032	-0.152	0.527
1162.499	662.606	80.005	19.995	100.255	20.030	-0.036	0.510
1162.999	662.844	80.006	19.995	100.255	20.033	-0.217	0.498
1163.499	663.076	80.007	19.995	100.255	20.032	-0.203	0.485
1163.999	663.355	80.006	19.995	100.255	20.032	-0.181	0.490
1164.499	663.638	80.006	19.995	100.255	20.033	-0.254	0.537
1164.999	663.863	80.005	19.995	100.254	20.033	-0.230	0.535
1165.499	664.079	80.006	19.995	100.255	20.030	-0.039	0.474
1165.999	664.342	80.005	19.995	100.254	20.030	-0.020	0.460
1166.499	664.635	80.006	19.995	100.254	20.035	-0.374	0.518
1166.999	664.861	80.006	19.995	100.254	20.031	-0.106	0.537
1167.500	665.145	80.007	19.996	100.255	20.031	-0.137	0.514
1167.999	665.406	80.005	19.995	100.255	20.030	-0.046	0.528
1168.499	665.666	80.004	19.996	100.254	20.031	-0.131	0.533
1168.999	665.909	80.005	19.995	100.254	20.031	-0.113	0.512
1169.499	666.197	80.005	19.994	100.254	20.032	-0.149	0.517
1169.999	666.440	80.005	19.997	100.253	20.032	-0.155	0.531
1170.499	666.684	80.006	19.995	100.253	20.029	0.002	0.509
1170.999	666.993	80.006	19.996	100.254	20.031	-0.082	0.520
1171.499	667.267	80.006	19.995	100.254	20.031	-0.087	0.568
1171.999	667.493	80.006	19.996	100.253	20.031	-0.104	0.542
1172.499	667.777	80.006	19.995	100.253	20.029	-0.015	0.505
1172.999	668.013	80.005	19.995	100.252	20.032	-0.181	0.515
1173.499	668.322	80.006	19.995	100.252	20.032	-0.181	0.532
1173.999	668.573	80.006	19.995	100.252	20.032	-0.167	0.553
1174.499	668.832	80.004	19.996	100.252	20.029	0.003	0.536
1174.999	669.077	80.006	19.995	100.252	20.031	-0.126	0.507
1175.499	669.375	80.005	19.995	100.251	20.030	-0.065	0.523
1175.999	669.629	80.007	19.996	100.251	20.030	-0.075	0.547
1176.499	669.873	80.006	19.994	100.251	20.028	0.082	0.525
1176.999	670.169	80.006	19.996	100.253	20.030	-0.026	0.519
1177.499	670.425	80.007	19.996	100.253	20.028	0.077	0.546
1177.999	670.709	80.005	19.996	100.254	20.033	-0.241	0.546
1178.499	670.946	80.005	19.997	100.254	20.030	-0.068	0.530
1178.999	671.256	80.005	19.996	100.254	20.032	-0.200	0.534
1179.499	671.510	80.005	19.996	100.252	20.032	-0.166	0.555
1179.999	671.794	80.006	19.996	100.252	20.035	-0.377	0.551
1180.499	672.077	80.005	19.997	100.251	20.034	-0.299	0.552
1180.999	672.326	80.006	19.995	100.252	20.034	-0.268	0.550
1181.499	672.620	80.006	19.996	100.251	20.033	-0.229	0.538
1181.999	672.904	80.007	19.996	100.251	20.033	-0.213	0.560
1182.499	673.164	80.005	19.995	100.251	20.033	-0.210	0.561
1182.999	673.421	80.007	19.996	100.251	20.028	0.061	0.531
1183.499	673.729	80.006	19.995	100.251	20.031	-0.099	0.541
1183.999	673.980	80.007	19.996	100.251	20.036	-0.410	0.562
1184.499	674.280	80.005	19.995	100.251	20.032	-0.166	0.555
1184.999	674.548	80.006	19.996	100.251	20.031	-0.140	0.560
1185.499	674.796	80.007	19.996	100.251	20.029	0.041	0.542
1185.999	675.087	80.008	19.996	100.250	20.030	-0.067	0.527
1186.499	675.416	80.007	19.996	100.251	20.029	0.038	0.580
1186.999	675.682	80.006	19.996	100.251	20.029	-0.015	0.608
1187.499	675.948	80.006	19.995	100.252	20.030	-0.058	0.564
1187.999	676.241	80.005	19.996	100.254	20.027	0.121	0.545
1188.499	676.514	80.007	19.996	100.255	20.031	-0.114	0.562
1189.000	676.797	80.005	19.996	100.255	20.030	-0.077	0.561
1189.500	677.058	80.007	19.996	100.255	20.026	0.178	0.550
1189.999	677.328	80.009	19.995	100.253	20.030	-0.073	0.538
1190.499	677.598	80.007	19.994	100.252	20.030	-0.043	0.535
1190.999	677.870	80.007	19.995	100.250	20.029	-0.009	0.541
1191.499	678.115	80.007	19.994	100.251	20.029	0.015	0.529
1191.999	678.437	80.005	19.995	100.251	20.029	-0.010	0.542
1192.499	678.702	80.007	19.995	100.252	20.027	0.116	0.578
1192.999	679.013	80.007	19.995	100.253	20.028	0.102	0.581
1193.499	679.314	80.008	19.995	100.254	20.030	-0.079	0.593
1193.999	679.591	80.006	19.995	100.253	20.030	-0.048	0.595
1194.499	679.900	80.007	19.994	100.253	20.029	-0.010	0.582
1194.999	680.098	80.007	19.995	100.253	20.031	-0.109	0.547
1195.499	680.398	80.007	19.994	100.251	20.026	0.171	0.503
1195.999	680.650	80.005	19.995	100.250	20.031	-0.090	0.525
1196.499	680.906	80.007	19.995	100.251	20.032	-0.186	0.530
1196.999	681.176	80.007	19.995	100.250	20.028	0.058	0.517
1197.500	681.496	80.006	19.995	100.250	20.030	-0.031	0.558
1198.000	681.778	80.007	19.996	100.251	20.032	-0.166	0.597
1198.499	682.041	80.007	19.995	100.251	20.029	0.005	0.574
1198.999	682.297	80.007	19.995	100.252	20.031	-0.138	0.532
1199.499	682.553	80.007	19.994	100.251	20.031	-0.138	0.515
1199.999	682.929	80.006	19.994	100.251	20.031	-0.130	0.572
1200.499	683.106	80.007	19.995	100.251	20.031	-0.128	0.592
1200.999	683.355	80.007	19.995	100.252	20.032	-0.167	0.490
1201.499	683.660	80.007	19.995	100.252	20.034	-0.314	0.490
1201.999	683.913	80.007	19.995	100.253	20.032	-0.184	0.556
1202.499	684.192	80.007	19.995	100.257	20.032	-0.200	0.545
1202.999	684.436	80.006	19.993	100.260	20.033	-0.244	0.528
1203.499	684.719	80.005	19.994	100.260	20.032	-0.183	0.525
1203.999	685.021	80.007	19.994	100.260	20.031	-0.123	0.556
1204.499	685.304	80.007	19.994	100.260	20.033	-0.212	0.585
1204.999	685.572	80.007	19.995	100.255	20.030	-0.056	0.568
1205.499	685.836	80.006	19.996	100.253	20.034	-0.290	0.542
1205.999	686.141	80.008	19.995	100.253	20.032	-0.201	0.551
1206.499	686.369	80.007	19.995	100.253	20.030	-0.051	0.551
1206.999	686.668	80.006	19.996	100.254	20.032	-0.201	0.530
1207.499	686.936	80.008	19.994	100.254	20.028	0.067	0.547
1207.999	687.193	80.006	19.994	100.254	20.031	-0.111	0.546
1208.499	687.501	80.008	19.995	100.254	20.029	0.039	0.545
1208.999	687.778	80.008	19.995	100.256	20.032	-0.181	0.575
1209.499	688.013	80.007	19.995	100.257	20.029	0.007	0.549
1209.999	688.274	80.008	19.994	100.258	20.031	-0.135	0.505
1210.499	688.565	80.008	19.996	100.258	20.029	-0.012	0.524
1210.999	688.852	80.008	19.994	100.260	20.027	0.118	0.565
1211.499	689.125	80.008	19.995	100.258	20.030	-0.063	0.569
1211.999	689.393	80.009	19.995	100.257	20.033	-0.234	0.550
1212.499	689.687	80.009	19.994	100.260	20.031	-0.116	0.551
1212.999	689.940	80.007	19.995	100.262	20.032	-0.172	0.554
1213.499	690.228	80.007	19.995	100.260	20.029	0.026	0.544
1213.999	690.487	80.008	19.995	100.260	20.031	-0.080	0.544
1214.499	690.745	80.009	19.995	100.258	20.031	-0.090	0.532
1214.999	691.082	80.007	19.995	100.254	20.031	-0.099	0.557
1215.499	691.303	80.008	19.995	100.252	20.034	-0.280	0.577
1215.999	691.581	80.008	19.994	100.251	20.033	-0.217	0.528
1216.500	691.857	80.007	19.995	100.251	20.035	-0.338	0.526
1216.999	692.118	80.007	19.994	100.252	20.029	0.003	0.546
1217.499	692.377	80.006	19.994	100.252	20.031	-0.090	0.528
1217.999	692.672	80.006	19.994	100.253	20.031	-0.135	0.537
1218.499	692.964	80.007	19.994	100.253	20.032	-0.201	0.570
1218.999	693.166	80.007	19.994	100.252	20.030	-0.032	0.540
1219.499	693.438	80.006	19.995	100.253	20.030	-0.032	0.485
1219.999	693.749	80.007	19.995	100.253	20.031	-0.137	0.528
1220.499	694.015	80.007	19.995	100.252	20.030	-0.070	0.579
1220.999	694.226	80.005	19.995	100.251	20.028	0.060	0.527
1221.499	694.490	80.005	19.995	100.251	20.030	-0.055	0.477
1221.999	694.805	80.005	19.995	100.251	20.029	0.010	0.528
1222.499	695.092	80.005	19.995	100.252	20.029	0.022	0.591
1222.999	695.335	80.004	19.995	100.252	20.028	0.106	0.565
1223.499	695.605	80.005	19.995	100.254	20.026	0.230	0.521
1223.999	695.852	80.005	19.995	100.255	20.028	0.060	0.515
1224.499	696.140	80.004	19.995	100.253	20.032	-0.154	0.527
1224.999	696.399	80.005	19.995	100.253	20.028	0.068	0.541
1225.500	696.672	80.005	19.994	100.255	20.028	0.084	0.539
1225.999	696.952	80.005	19.995	100.254	20.030	-0.051	0.542
1226.499	697.227	80.005	19.995	100.254	20.030	-0.036	0.554
1227.000	697.509	80.006	19.994	100.256	20.030	-0.031	0.556
1227.499	697.760	80.005	19.994	100.256	20.029	0.003	0.545
1227.999	698.021	80.005	19.994	100.256	20.030	-0.024	0.522
1228.499	698.261	80.005	19.995	100.256	20.030	-0.070	0.506
1228.999	698.525	80.004	19.994	100.256	20.028	0.097	0.503
1229.499	698.807	80.004	19.996	100.256	20.028	0.046	0.525
1229.999	699.038	80.005	19.994	100.256	20.029	0.029	0.530
1230.499	699.343	80.005	19.994	100.256	20.030	-0.055	0.525
1230.999	699.589	80.007	19.994	100.256	20.031	-0.084	0.543
1231.499	699.845	80.006	19.995	100.256	20.031	-0.133	0.526
1231.999	700.107	80.006	19.994	100.256	20.029	-0.007	0.510
1232.499	700.339	80.006	19.994	100.256	20.028	0.077	0.506
1232.999	700.640	80.007	19.995	100.255	20.029	0.005	0.514
1233.499	700.886	80.007	19.995	100.255	20.030	-0.079	0.540
1233.999	701.137	80.007	19.994	100.255	20.032	-0.196	0.522
1234.499	701.358	80.006	19.995	100.254	20.032	-0.186	0.484
1234.999	701.650	80.007	19.995	100.254	20.031	-0.142	0.492
1235.499	701.906	80.006	19.995	100.253	20.030	-0.031	0.530
1235.999	702.151	80.007	19.994	100.252	20.030	-0.027	0.524
1236.499	702.446	80.006	19.994	100.251	20.030	-0.043	0.521
1236.999	702.679	80.006	19.995	100.252	20.031	-0.102	0.534
1237.499	702.964	80.006	19.995	100.252	20.030	-0.051	0.523
1237.999	703.210	80.006	19.995	100.252	20.030	-0.046	0.525
1238.499	703.487	80.006	19.994	100.253	20.031	-0.120	0.527
1238.999	703.734	80.006	19.995	100.253	20.033	-0.222	0.523
1239.499	703.981	80.007	19.995	100.252	20.031	-0.140	0.509
1239.999	704.256	80.007	19.995	100.252	20.029	0.015	0.508
1240.499	704.490	80.005	19.996	100.252	20.029	0.014	0.516
1240.999	704.776	80.007	19.996	100.251	20.030	-0.026	0.514
1241.499	705.022	80.006	19.995	100.252	20.031	-0.111	0.526
1241.999	705.252	80.006	19.995	100.252	20.032	-0.169	0.504
1242.499	705.530	80.007	19.995	100.252	20.031	-0.087	0.492
1242.999	705.729	80.007	19.996	100.252	20.031	-0.090	0.493
1243.499	705.981	80.007	19.995	100.252	20.028	0.048	0.464
1243.999	706.251	80.006	19.996	100.252	20.032	-0.191	0.486
1244.499	706.494	80.006	19.996	100.251	20.029	0.014	0.517
1244.999	706.801	80.006	19.995	100.251	20.031	-0.137	0.531
1245.499	707.011	80.005	19.996	100.251	20.032	-0.164	0.534
1245.999	707.290	80.006	19.996	100.250	20.027	0.126	0.503
1246.499	707.551	80.005	19.995	100.251	20.028	0.048	0.515
1246.999	707.760	80.005	19.995	100.251	20.029	0.003	0.505
1247.499	708.057	80.005	19.995	100.251	20.029	-0.012	0.488
1247.999	708.281	80.006	19.996	100.251	20.030	-0.067	0.514
1248.499	708.544	80.005	19.995	100.252	20.033	-0.217	0.504
1248.999	708.767	80.004	19.995	100.251	20.029	0.005	0.486
1249.499	709.039	80.004	19.996	100.251	20.030	-0.053	0.490
1249.999	709.280	80.005	19.995	100.251	20.034	-0.297	0.504
1250.499	709.548	80.006	19.995	100.251	20.034	-0.283	0.511
1250.999	709.782	80.004	19.995	100.250	20.034	-0.321	0.506
1251.499	710.005	80.004	19.995	100.250	20.031	-0.131	0.479
1251.999	710.287	80.005	19.995	100.251	20.028	0.072	0.481
1252.499	710.532	80.004	19.995	100.251	20.032	-0.147	0.516
1252.999	710.773	80.005	19.995	100.252	20.027	0.116	0.506
1253.499	711.062	80.005	19.995	100.253	20.031	-0.106	0.508
1253.999	711.296	80.006	19.995	100.253	20.034	-0.280	0.527
1254.499	711.529	80.005	19.996	100.253	20.032	-0.154	0.496
1254.999	711.786	80.004	19.995	100.253	20.032	-0.193	0.479
1255.499	712.041	80.005	19.995	100.252	20.031	-0.121	0.501
1255.999	712.299	80.006	19.994	100.252	20.030	-0.034	0.512
1256.499	712.516	80.006	19.996	100.252	20.034	-0.270	0.494
1256.999	712.762	80.004	19.996	100.252	20.031	-0.099	0.469
1257.499	713.006	80.005	19.996	100.252	20.028	0.090	0.477
1257.999	713.280	80.004	19.997	100.252	20.028	0.061	0.504
1258.499	713.521	80.004	19.995	100.252	20.030	-0.031	0.516
1258.999	713.773	80.006	19.996	100.252	20.031	-0.118	0.505
1259.499	714.040	80.004	19.996	100.251	20.029	-0.012	0.506
1259.999	714.278	80.005	19.995	100.252	20.029	-0.012	0.512
1260.499	714.544	80.006	19.996	100.252	20.030	-0.077	0.504
1260.999	714.772	80.007	19.996	100.252	20.029	0.038	0.499
1261.499	715.040	80.007	19.996	100.252	20.029	0.036	0.495
1261.999	715.279	80.007	19.995	100.252	20.031	-0.096	0.502
1262.499	715.537	80.007	19.996	100.251	20.028	0.063	0.502
1262.999	715.803	80.004	19.995	100.251	20.030	-0.036	0.511
1263.499	716.048	80.006	19.995	100.251	20.031	-0.092	0.517
1263.999	716.315	80.006	19.995	100.251	20.030	-0.029	0.511
1264.499	716.548	80.007	19.995	100.250	20.028	0.097	0.507
1264.999	716.794	80.008	19.996	100.250	20.029	0.005	0.490
1265.499	717.070	80.008	19.994	100.250	20.033	-0.241	0.500
1265.999	717.294	80.006	19.995	100.251	20.028	0.063	0.511
1266.499	717.524	80.007	19.996	100.251	20.027	0.111	0.477
1266.999	717.792	80.006	19.995	100.252	20.027	0.155	0.477
1267.499	718.031	80.006	19.995	100.253	20.027	0.155	0.503
1267.999	718.257	80.006	19.996	100.253	20.028	0.094	0.486
1268.499	718.506	80.007	19.996	100.253	20.028	0.067	0.470
1268.999	718.749	80.007	19.996	100.252	20.028	0.090	0.483
1269.499	719.008	80.007	19.995	100.253	20.030	-0.032	0.497
1269.999	719.267	80.006	19.995	100.252	20.027	0.160	0.510
1270.499	719.482	80.008	19.995	100.251	20.030	-0.061	0.496
1270.999	719.739	80.006	19.995	100.250	20.030	-0.068	0.473
1271.499	719.992	80.006	19.996	100.249	20.025	0.280	0.490
1271.999	720.233	80.007	19.996	100.249	20.026	0.178	0.502
1272.499	720.486	80.007	19.996	100.249	20.026	0.193	0.494
1272.999	720.720	80.007	19.995	100.250	20.025	0.282	0.491
1273.499	720.967	80.006	19.996	100.251	20.026	0.200	0.484
1273.999	721.200	80.008	19.996	100.253	20.026	0.217	0.481
1274.499	721.458	80.006	19.996	100.254	20.027	0.120	0.486
1274.999	721.674	80.005	19.996	100.254	20.029	0.027	0.482
1275.499	721.938	80.005	19.996	100.253	20.030	-0.020	0.477
1275.999	722.154	80.006	19.996	100.253	20.030	-0.022	0.480
1276.499	722.427	80.007	19.996	100.251	20.030	-0.048	0.484
1276.999	722.640	80.005	19.996	100.250	20.028	0.060	0.488
1277.499	722.847	80.006	19.996	100.251	20.027	0.145	0.453
1277.999	723.160	80.006	19.996	100.251	20.029	0.041	0.470
1278.499	723.385	80.005	19.997	100.251	20.030	-0.036	0.529
1278.999	723.605	80.006	19.995	100.254	20.027	0.160	0.492
1279.499	723.863	80.006	19.996	100.254	20.032	-0.183	0.461
1279.999	724.059	80.007	19.997	100.254	20.031	-0.133	0.466
1280.499	724.308	80.005	19.997	100.254	20.029	-0.010	0.450
1280.999	724.493	80.006	19.995	100.254	20.030	-0.075	0.440
1281.499	724.792	80.005	19.996	100.254	20.029	0.034	0.459
1281.999	725.047	80.006	19.997	100.254	20.031	-0.111	0.519
1282.499	725.271	80.006	19.996	100.253	20.031	-0.106	0.516
1282.999	725.494	80.004	19.996	100.253	20.031	-0.082	0.463
1283.499	725.759	80.006	19.996	100.252	20.028	0.099	0.468
1283.999	725.990	80.006	19.996	100.253	20.032	-0.149	0.492
1284.499	726.199	80.006	19.996	100.253	20.032	-0.176	0.468
1285.000	726.474	80.005	19.994	100.254	20.031	-0.084	0.462
1285.499	726.693	80.005	19.996	100.254	20.032	-0.147	0.489
1285.999	726.912	80.005	19.995	100.254	20.034	-0.295	0.466
1286.499	727.175	80.007	19.995	100.254	20.028	0.108	0.460
1286.999	727.406	80.007	19.994	100.254	20.029	0.036	0.488
1287.499	727.635	80.007	19.996	100.254	20.032	-0.150	0.477
1287.999	727.904	80.007	19.994	100.253	20.030	-0.039	0.479
1288.499	728.091	80.008	19.995	100.249	20.032	-0.179	0.477
1289.000	728.351	80.007	19.995	100.245	20.030	-0.029	0.451
1289.500	728.622	80.007	19.994	100.244	20.029	0.027	0.489
1289.999	728.830	80.008	19.994	100.241	20.028	0.104	0.505
1290.499	729.087	80.009	19.994	100.241	20.028	0.046	0.472
1290.999	729.361	80.008	19.994	100.245	20.028	0.106	0.498
1291.499	729.588	80.008	19.995	100.248	20.027	0.149	0.516
1291.999	729.841	80.007	19.995	100.248	20.029	-0.009	0.491
1292.499	730.070	80.009	19.994	100.251	20.031	-0.084	0.481
1292.999	730.316	80.009	19.994	100.251	20.029	-0.014	0.478
1293.499	730.553	80.008	19.994	100.252	20.030	-0.046	0.479
1293.999	730.804	80.008	19.995	100.252	20.029	0.036	0.485
1294.499	731.031	80.008	19.995	100.254	20.028	0.108	0.483
1294.999	731.302	80.008	19.995	100.255	20.027	0.133	0.488
1295.499	731.521	80.008	19.995	100.256	20.027	0.169	0.494
1295.999	731.784	80.007	19.995	100.256	20.029	0.039	0.486
1296.499	732.019	80.009	19.994	100.256	20.028	0.075	0.490
1296.999	732.234	80.008	19.994	100.255	20.030	-0.017	0.474
1297.499	732.509	80.008	19.995	100.254	20.027	0.133	0.470
1297.999	732.754	80.006	19.995	100.253	20.029	0.043	0.505
1298.499	732.967	80.008	19.994	100.253	20.026	0.171	0.489
1298.999	733.233	80.008	19.995	100.253	20.025	0.278	0.468
1299.499	733.492	80.007	19.995	100.253	20.026	0.183	0.502
1299.999	733.719	80.007	19.995	100.253	20.029	0.002	0.506
1300.499	733.964	80.007	19.995	100.253	20.025	0.254	0.479
1300.999	734.206	80.007	19.995	100.252	20.027	0.145	0.479
1301.499	734.473	80.007	19.994	100.252	20.026	0.198	0.498
1301.999	734.711	80.007	19.995	100.252	20.027	0.169	0.507
1302.499	734.925	80.005	19.994	100.251	20.030	-0.077	0.478
1302.999	735.145	80.006	19.995	100.251	20.030	-0.034	0.443
1303.499	735.390	80.006	19.995	100.251	20.030	-0.017	0.449
1303.999	735.634	80.006	19.996	100.252	20.030	-0.034	0.477
1304.499	735.912	80.006	19.995	100.253	20.032	-0.159	0.506
1304.999	736.129	80.005	19.996	100.252	20.030	-0.041	0.508
1305.499	736.366	80.006	19.995	100.252	20.028	0.087	0.475
1305.999	736.621	80.005	19.996	100.252	20.026	0.183	0.474
1306.499	736.855	80.005	19.995	100.250	20.031	-0.089	0.491
1306.999	737.126	80.006	19.996	100.247	20.028	0.065	0.497
1307.499	737.347	80.006	19.995	100.246	20.029	0.020	0.499
1307.999	737.631	80.006	19.995	100.245	20.029	0.019	0.499
1308.499	737.827	80.005	19.996	100.247	20.030	-0.036	0.492
1308.999	738.086	80.007	19.996	100.249	20.031	-0.097	0.467
1309.499	738.369	80.006	19.995	100.252	20.027	0.164	0.498
1309.999	738.575	80.005	19.995	100.254	20.027	0.116	0.516
1310.499	738.829	80.005	19.995	100.254	20.031	-0.101	0.475
1310.999	739.071	80.006	19.995	100.253	20.028	0.068	0.478
1311.499	739.344	80.006	19.995	100.252	20.031	-0.090	0.506
1311.999	739.551	80.006	19.996	100.252	20.031	-0.130	0.497
1312.499	739.803	80.006	19.995	100.252	20.032	-0.186	0.469
1312.999	740.043	80.006	19.995	100.252	20.030	-0.067	0.475
1313.499	740.292	80.006	19.996	100.251	20.027	0.114	0.491
1313.999	740.582	80.007	19.996	100.251	20.029	0.010	0.515
1314.499	740.776	80.006	19.995	100.251	20.027	0.147	0.512
1314.999	741.038	80.007	19.995	100.251	20.029	0.003	0.470
1315.499	741.294	80.006	19.994	100.251	20.032	-0.179	0.487
1315.999	741.559	80.007	19.996	100.252	20.029	0.038	0.519
1316.499	741.781	80.008	19.995	100.252	20.029	0.019	0.504
1316.999	742.058	80.006	19.995	100.252	20.030	-0.056	0.493
1317.499	742.271	80.007	19.996	100.252	20.030	-0.039	0.494
1317.999	742.510	80.007	19.995	100.252	20.031	-0.080	0.471
1318.499	742.784	80.006	19.996	100.252	20.031	-0.123	0.483
1318.999	743.016	80.005	19.995	100.252	20.034	-0.321	0.510
1319.499	743.298	80.006	19.996	100.252	20.029	0.010	0.510
1319.999	743.494	80.006	19.995	100.253	20.031	-0.114	0.496
1320.499	743.786	80.007	19.996	100.253	20.030	-0.031	0.483
1320.999	744.062	80.007	19.996	100.252	20.030	-0.058	0.528
1321.499	744.237	80.006	19.995	100.253	20.030	-0.043	0.510
1321.999	744.518	80.008	19.995	100.253	20.028	0.055	0.453
1322.499	744.788	80.006	19.995	100.252	20.027	0.152	0.503
1322.999	745.013	80.006	19.995	100.251	20.030	-0.043	0.523
1323.499	745.254	80.007	19.994	100.252	20.029	0.027	0.481
1323.999	745.513	80.006	19.995	100.252	20.029	0.015	0.483
