Sample ID:	C:\MCC\MCC Cal\Test\Fiberglas_Inaulation1_MCC_30K_min_220124_R2.txt
Sample Weight (mg):	4.78
Heating Rate (C/s):	0.5
Combustor Temp (C):	900
N2 Flow Rate (cc/min):	80
O2 Flow Rate (cc/min):	20
Calibration File:	C:\MCC\MCC Cal\Coeff1 JN10440_30_210304.txt.txt
T Correction Coefficients:	0	1.024463	0
Time Shift (s):	14
*
Time (s)	Temperature (C)	N2 flow rate (cc/min)	O2 flow rate (cc/min)	Flow Rate (cc/min)	Oxygen (%)	HRR (W/g)	Heating rate (C/s)
-0.001	113.134	80.005	19.993	103.752	20.131	0.223	-0.019
0.499	113.172	80.009	19.994	103.750	20.136	-0.092	-0.017
0.999	113.144	79.995	19.994	103.749	20.133	0.060	0.004
1.499	113.187	80.010	19.991	103.745	20.136	-0.126	0.012
1.999	113.144	80.005	19.994	103.748	20.137	-0.163	0.008
2.499	113.126	80.000	19.995	103.746	20.133	0.107	-0.030
2.999	113.159	80.008	19.992	103.746	20.136	-0.101	-0.023
3.499	113.183	80.020	19.993	103.747	20.132	0.174	0.036
3.999	113.175	80.006	19.997	103.750	20.133	0.098	0.037
4.499	113.150	80.011	19.994	103.745	20.134	0.041	-0.008
4.999	113.117	80.011	19.993	103.747	20.133	0.073	-0.046
5.499	113.134	80.007	19.998	103.750	20.132	0.141	-0.038
6.000	113.168	80.008	19.995	103.745	20.132	0.141	0.017
6.500	113.170	80.014	19.993	103.746	20.133	0.071	0.044
6.999	113.148	80.006	19.993	103.749	20.135	-0.071	0.008
7.499	113.136	79.990	19.996	103.748	20.133	0.084	-0.027
7.999	113.140	79.992	19.997	103.744	20.134	0.032	-0.021
8.499	113.136	79.993	19.995	103.747	20.137	-0.203	-0.004
8.999	113.145	80.000	19.996	103.745	20.135	-0.058	0.002
9.499	113.170	80.011	19.996	103.739	20.132	0.133	0.020
9.999	113.148	79.992	19.994	103.736	20.132	0.126	0.018
10.499	113.168	80.016	19.994	103.735	20.134	0.047	0.001
10.999	113.136	80.017	19.992	103.737	20.133	0.096	-0.007
11.499	113.160	79.999	19.995	103.738	20.130	0.278	-0.010
11.999	113.100	80.016	19.994	103.743	20.132	0.120	-0.022
12.499	113.155	80.003	19.993	103.748	20.134	0.039	-0.021
12.999	113.147	80.011	19.993	103.757	20.129	0.347	0.021
13.499	113.132	80.018	19.994	103.764	20.131	0.195	0.012
13.999	113.105	80.014	19.993	103.771	20.130	0.315	-0.032
14.499	113.088	80.016	19.994	103.778	20.132	0.150	-0.043
14.999	113.133	80.018	19.992	103.783	20.129	0.340	-0.009
15.499	113.105	80.004	19.993	103.787	20.128	0.390	0.022
15.999	113.139	80.013	19.994	103.789	20.126	0.536	0.012
16.499	113.148	80.005	19.997	103.796	20.125	0.597	0.025
16.999	113.138	80.002	19.995	103.805	20.127	0.488	0.021
17.499	113.121	80.008	19.996	103.809	20.125	0.630	-0.014
17.999	113.130	80.011	19.994	103.811	20.126	0.574	-0.018
18.499	113.186	80.003	19.994	103.815	20.123	0.779	0.029
18.999	113.184	80.019	19.992	103.816	20.122	0.833	0.060
19.500	113.179	80.002	19.992	103.823	20.122	0.807	0.023
20.000	113.176	80.011	19.992	103.836	20.121	0.876	-0.008
20.499	113.174	80.008	19.993	103.847	20.120	0.928	-0.006
20.999	113.197	80.013	19.992	103.851	20.116	1.242	0.008
21.499	113.206	80.009	19.995	103.856	20.117	1.174	0.026
21.999	113.269	80.021	19.992	103.854	20.119	1.058	0.053
22.499	113.272	80.020	19.992	103.852	20.118	1.099	0.069
22.999	113.314	80.006	19.993	103.853	20.116	1.245	0.055
23.499	113.290	80.011	19.993	103.852	20.114	1.371	0.032
23.999	113.279	80.003	19.994	103.847	20.117	1.191	-0.008
24.499	113.352	80.014	19.993	103.838	20.117	1.183	0.013
24.999	113.392	80.009	19.993	103.826	20.115	1.275	0.088
25.499	113.361	80.006	19.994	103.821	20.118	1.099	0.061
25.999	113.410	79.997	19.992	103.819	20.120	0.964	0.014
26.499	113.422	80.004	19.993	103.822	20.119	1.056	0.040
26.999	113.440	80.004	19.995	103.825	20.121	0.923	0.045
27.499	113.513	80.013	19.991	103.828	20.120	0.972	0.060
27.999	113.503	80.013	19.993	103.828	20.118	1.086	0.077
28.499	113.562	80.012	19.993	103.831	20.120	0.966	0.056
28.999	113.602	80.000	19.994	103.831	20.117	1.146	0.074
29.499	113.653	80.007	19.994	103.829	20.122	0.820	0.095
29.999	113.630	79.987	19.995	103.828	20.118	1.083	0.060
30.499	113.688	79.997	19.994	103.823	20.119	0.998	0.031
30.999	113.703	80.004	19.995	103.817	20.124	0.692	0.054
31.499	113.726	80.004	19.993	103.807	20.120	0.933	0.055
31.999	113.798	80.011	19.993	103.805	20.119	1.010	0.067
32.499	113.798	79.999	19.994	103.806	20.121	0.893	0.083
32.999	113.881	80.008	19.992	103.807	20.123	0.777	0.077
33.499	113.882	80.006	19.995	103.805	20.119	1.045	0.083
33.999	113.921	80.006	19.994	103.807	20.123	0.755	0.062
34.499	113.953	80.004	19.995	103.805	20.123	0.755	0.056
34.999	113.970	80.008	19.996	103.798	20.121	0.888	0.060
35.499	113.995	80.013	19.994	103.791	20.122	0.813	0.046
35.999	114.073	80.010	19.994	103.792	20.119	1.027	0.072
36.499	114.084	80.005	19.995	103.799	20.123	0.742	0.096
36.999	114.137	80.011	19.992	103.806	20.118	1.093	0.077
37.499	114.161	80.006	19.995	103.820	20.119	0.999	0.071
37.999	114.188	80.005	19.997	103.828	20.119	0.997	0.064
38.499	114.234	80.004	19.995	103.832	20.117	1.188	0.062
38.999	114.275	80.002	19.994	103.831	20.114	1.353	0.080
39.500	114.338	80.006	19.994	103.834	20.112	1.473	0.096
40.000	114.397	80.005	19.994	103.835	20.115	1.282	0.113
40.499	114.458	80.008	19.994	103.845	20.113	1.436	0.121
40.999	114.476	80.001	19.996	103.854	20.113	1.430	0.100
41.499	114.537	79.998	19.995	103.859	20.114	1.361	0.079
41.999	114.569	80.006	19.994	103.864	20.115	1.329	0.086
42.499	114.625	80.006	19.994	103.864	20.113	1.413	0.090
42.999	114.692	80.012	19.993	103.864	20.115	1.304	0.105
43.499	114.708	80.008	19.994	103.866	20.111	1.563	0.103
43.999	114.739	80.007	19.994	103.873	20.110	1.638	0.065
44.499	114.846	80.000	19.995	103.880	20.107	1.833	0.092
44.999	114.893	80.006	19.993	103.888	20.112	1.505	0.146
45.499	114.909	80.006	19.997	103.892	20.108	1.751	0.108
45.999	114.976	80.006	19.997	103.899	20.110	1.646	0.073
46.499	115.016	80.011	19.994	103.903	20.110	1.670	0.095
46.999	115.092	80.007	19.995	103.904	20.109	1.740	0.112
47.499	115.156	80.009	19.996	103.905	20.110	1.642	0.128
47.999	115.206	80.006	19.995	103.907	20.108	1.790	0.127
48.499	115.254	80.008	19.993	103.901	20.112	1.498	0.105
48.999	115.360	80.006	19.995	103.894	20.110	1.636	0.126
49.499	115.381	80.002	19.995	103.886	20.111	1.571	0.141
49.999	115.478	80.005	19.994	103.879	20.108	1.766	0.123
50.499	115.565	80.004	19.995	103.873	20.105	1.997	0.151
50.999	115.611	80.013	19.991	103.876	20.108	1.776	0.158
51.499	115.642	80.005	19.995	103.883	20.105	1.954	0.105
52.000	115.745	80.011	19.992	103.883	20.107	1.864	0.106
52.500	115.793	80.010	19.993	103.884	20.110	1.656	0.143
52.999	115.884	80.000	19.993	103.883	20.107	1.821	0.145
53.499	115.954	80.012	19.992	103.879	20.111	1.594	0.150
53.999	116.020	80.006	19.992	103.870	20.108	1.765	0.148
54.499	116.148	80.008	19.994	103.871	20.111	1.545	0.165
54.999	116.186	80.006	19.992	103.869	20.112	1.521	0.181
55.500	116.274	80.005	19.992	103.869	20.113	1.444	0.146
56.000	116.330	80.015	19.993	103.869	20.111	1.577	0.135
56.499	116.444	80.007	19.994	103.869	20.113	1.447	0.157
56.999	116.535	80.008	19.993	103.868	20.114	1.337	0.187
57.499	116.579	80.004	19.994	103.870	20.114	1.348	0.170
57.999	116.637	80.002	19.993	103.869	20.113	1.470	0.119
58.499	116.737	80.000	19.994	103.869	20.112	1.485	0.130
58.999	116.825	80.006	19.993	103.867	20.115	1.297	0.173
59.499	116.894	80.008	19.992	103.868	20.109	1.703	0.173
59.999	116.941	80.002	19.994	103.868	20.113	1.432	0.137
60.499	117.043	80.007	19.993	103.870	20.110	1.643	0.132
60.999	117.154	80.006	19.993	103.872	20.111	1.601	0.181
61.499	117.203	80.001	19.994	103.877	20.114	1.387	0.187
61.999	117.300	80.004	19.995	103.882	20.112	1.477	0.153
62.499	117.419	80.008	19.992	103.887	20.113	1.459	0.180
62.999	117.503	80.004	19.993	103.895	20.111	1.547	0.209
63.499	117.581	80.007	19.993	103.901	20.112	1.476	0.183
63.999	117.637	80.001	19.993	103.904	20.112	1.504	0.148
64.499	117.725	80.005	19.993	103.905	20.111	1.603	0.139
64.999	117.792	80.008	19.993	103.901	20.109	1.699	0.149
65.499	117.882	80.004	19.993	103.898	20.110	1.632	0.156
65.999	117.992	79.998	19.993	103.898	20.107	1.851	0.179
66.499	118.096	80.005	19.994	103.899	20.110	1.637	0.207
66.999	118.196	80.006	19.993	103.899	20.107	1.827	0.208
67.499	118.248	80.004	19.993	103.904	20.105	2.007	0.177
67.999	118.358	80.003	19.993	103.906	20.106	1.946	0.157
68.499	118.484	80.004	19.992	103.905	20.106	1.895	0.199
68.999	118.549	80.012	19.992	103.905	20.105	1.964	0.214
69.499	118.668	80.009	19.993	103.907	20.108	1.793	0.188
69.999	118.743	80.004	19.993	103.909	20.106	1.931	0.189
70.499	118.853	79.999	19.993	103.908	20.106	1.917	0.189
70.999	118.951	80.014	19.991	103.910	20.107	1.822	0.196
71.499	119.074	80.006	19.993	103.911	20.106	1.884	0.214
71.999	119.135	80.011	19.992	103.910	20.106	1.880	0.203
72.499	119.273	80.005	19.993	103.910	20.109	1.735	0.192
72.999	119.385	80.000	19.994	103.909	20.104	2.051	0.225
73.499	119.452	80.001	19.995	103.908	20.104	2.036	0.215
73.999	119.586	80.006	19.993	103.909	20.108	1.760	0.190
74.499	119.692	80.004	19.993	103.915	20.106	1.897	0.220
74.999	119.766	80.007	19.993	103.917	20.108	1.779	0.210
75.499	119.874	80.004	19.994	103.918	20.107	1.876	0.181
75.999	120.005	80.010	19.993	103.923	20.107	1.835	0.211
76.499	120.122	80.007	19.993	103.926	20.106	1.912	0.244
76.999	120.241	80.007	19.993	103.928	20.105	1.953	0.242
77.499	120.321	80.007	19.993	103.932	20.103	2.111	0.218
77.999	120.465	80.013	19.992	103.937	20.104	2.055	0.212
78.499	120.586	80.004	19.993	103.940	20.100	2.305	0.244
78.999	120.683	80.005	19.992	103.941	20.101	2.258	0.242
79.499	120.814	80.008	19.993	103.941	20.102	2.205	0.223
79.999	120.920	80.005	19.993	103.941	20.101	2.239	0.232
80.499	121.053	80.006	19.993	103.943	20.103	2.106	0.238
80.999	121.161	80.004	19.994	103.943	20.102	2.211	0.240
81.499	121.257	80.007	19.992	103.943	20.099	2.416	0.223
81.999	121.378	80.008	19.993	103.942	20.101	2.262	0.210
82.499	121.512	80.008	19.992	103.944	20.100	2.314	0.236
82.999	121.626	80.007	19.992	103.944	20.101	2.251	0.252
83.499	121.772	80.007	19.992	103.946	20.100	2.303	0.254
83.999	121.901	80.007	19.993	103.946	20.098	2.425	0.268
84.499	121.996	80.008	19.993	103.948	20.099	2.399	0.249
84.999	122.162	80.007	19.992	103.951	20.100	2.330	0.242
85.499	122.305	80.007	19.993	103.954	20.097	2.491	0.285
85.999	122.436	80.009	19.994	103.955	20.100	2.346	0.292
86.499	122.578	80.006	19.993	103.955	20.098	2.457	0.273
86.999	122.706	80.009	19.993	103.954	20.098	2.454	0.271
87.499	122.830	80.008	19.994	103.953	20.099	2.395	0.261
87.999	122.962	80.006	19.993	103.952	20.097	2.538	0.254
88.499	123.124	80.009	19.994	103.951	20.100	2.335	0.276
88.999	123.234	80.008	19.994	103.954	20.097	2.502	0.283
89.499	123.390	80.007	19.993	103.961	20.099	2.393	0.269
89.999	123.543	80.008	19.995	103.964	20.096	2.568	0.287
90.499	123.636	80.010	19.995	103.969	20.099	2.393	0.277
90.999	123.837	80.006	19.993	103.976	20.095	2.662	0.270
91.499	123.990	80.007	19.995	103.974	20.098	2.461	0.324
91.999	124.105	80.008	19.993	103.972	20.098	2.457	0.311
92.499	124.264	80.005	19.993	103.973	20.096	2.576	0.270
92.999	124.385	80.006	19.993	103.970	20.096	2.577	0.277
93.499	124.577	80.008	19.993	103.970	20.097	2.531	0.297
93.999	124.703	80.007	19.994	103.977	20.095	2.639	0.316
94.499	124.838	80.008	19.993	103.980	20.093	2.814	0.289
94.999	125.023	80.006	19.993	103.980	20.093	2.795	0.290
95.499	125.173	80.007	19.994	103.983	20.094	2.705	0.328
95.999	125.303	80.007	19.994	103.982	20.094	2.711	0.308
96.499	125.487	80.007	19.994	103.982	20.094	2.728	0.297
96.999	125.656	80.005	19.994	103.981	20.096	2.619	0.334
97.499	125.786	80.010	19.992	103.981	20.094	2.722	0.326
97.999	125.951	80.004	19.995	103.982	20.092	2.865	0.296
98.499	126.110	80.007	19.993	103.980	20.093	2.765	0.309
98.999	126.278	80.010	19.993	103.980	20.091	2.944	0.326
99.499	126.473	80.007	19.994	103.980	20.092	2.861	0.345
99.999	126.609	80.007	19.993	103.980	20.090	2.969	0.346
100.499	126.795	80.008	19.995	103.980	20.093	2.799	0.326
100.999	126.942	79.999	19.997	103.981	20.093	2.790	0.328
101.499	127.079	80.004	19.993	103.979	20.092	2.873	0.309
101.999	127.305	80.016	19.993	103.975	20.096	2.611	0.323
102.499	127.474	80.009	19.995	103.977	20.092	2.893	0.379
102.999	127.644	80.009	19.994	103.975	20.092	2.842	0.367
103.499	127.785	80.010	19.994	103.975	20.090	2.968	0.325
103.999	127.983	80.010	19.993	103.976	20.094	2.750	0.325
104.499	128.190	80.010	19.994	103.979	20.094	2.749	0.372
104.999	128.338	80.005	19.993	103.976	20.092	2.831	0.380
105.499	128.542	80.007	19.996	103.975	20.093	2.803	0.354
105.999	128.669	80.011	19.994	103.974	20.094	2.754	0.342
106.499	128.853	80.005	19.995	103.977	20.092	2.895	0.321
106.999	129.031	80.009	19.994	103.977	20.094	2.698	0.337
107.499	129.223	80.008	19.996	103.979	20.092	2.865	0.366
107.999	129.396	80.009	19.994	103.982	20.091	2.935	0.368
108.499	129.575	80.008	19.994	103.980	20.092	2.850	0.359
108.999	129.742	80.007	19.994	103.979	20.091	2.901	0.349
109.499	129.942	80.009	19.993	103.980	20.092	2.860	0.356
109.999	130.138	80.006	19.993	103.983	20.091	2.903	0.382
110.499	130.341	80.005	19.994	103.984	20.092	2.856	0.398
110.999	130.505	80.007	19.993	103.988	20.093	2.784	0.383
111.499	130.693	80.006	19.994	103.989	20.093	2.814	0.360
111.999	130.857	80.005	19.994	103.989	20.094	2.709	0.352
112.499	131.042	80.007	19.993	103.986	20.093	2.786	0.350
112.999	131.231	80.008	19.994	103.984	20.094	2.732	0.361
113.499	131.422	80.003	19.994	103.983	20.094	2.743	0.377
113.999	131.604	80.005	19.995	103.983	20.096	2.608	0.377
114.499	131.769	80.006	19.995	103.982	20.093	2.775	0.361
114.999	131.989	80.006	19.995	103.983	20.093	2.769	0.366
115.499	132.196	80.009	19.993	103.985	20.092	2.890	0.405
115.999	132.409	80.008	19.993	103.986	20.093	2.811	0.424
116.499	132.598	80.000	19.995	103.987	20.092	2.831	0.412
116.999	132.805	80.009	19.992	103.987	20.095	2.673	0.399
117.499	132.974	79.982	19.997	103.989	20.092	2.850	0.386
117.999	133.157	80.008	19.993	103.987	20.094	2.741	0.364
118.499	133.376	80.007	19.994	103.987	20.097	2.501	0.377
118.999	133.569	80.004	19.995	103.993	20.096	2.606	0.407
119.499	133.753	80.007	19.994	104.001	20.094	2.739	0.394
119.999	133.952	80.008	19.992	104.001	20.092	2.844	0.380
120.499	134.148	80.010	19.994	104.003	20.094	2.751	0.389
120.999	134.382	80.005	19.994	103.998	20.095	2.640	0.413
121.499	134.568	80.005	19.994	103.988	20.096	2.621	0.425
121.999	134.742	80.009	19.993	103.980	20.091	2.912	0.390
122.499	134.943	80.006	19.993	103.978	20.091	2.899	0.367
122.999	135.152	80.005	19.995	103.979	20.093	2.807	0.392
123.499	135.403	80.006	19.993	103.982	20.095	2.685	0.435
123.999	135.596	80.004	19.994	103.986	20.091	2.908	0.452
124.499	135.787	80.008	19.994	103.987	20.090	3.008	0.414
124.999	136.010	80.005	19.995	103.986	20.090	2.980	0.399
125.499	136.172	80.004	19.993	103.986	20.092	2.833	0.400
125.999	136.428	80.004	19.994	103.985	20.093	2.814	0.402
126.499	136.635	80.006	19.993	103.986	20.090	2.966	0.440
126.999	136.833	80.006	19.995	103.986	20.091	2.910	0.434
127.499	137.075	80.008	19.994	103.986	20.095	2.687	0.422
127.999	137.270	80.007	19.995	103.986	20.092	2.839	0.438
128.499	137.506	80.002	19.994	103.986	20.091	2.946	0.434
128.999	137.725	80.006	19.995	103.985	20.093	2.788	0.443
129.499	137.927	80.007	19.993	103.985	20.091	2.921	0.438
129.999	138.131	80.006	19.993	103.986	20.092	2.846	0.414
130.499	138.335	80.006	19.994	103.987	20.092	2.893	0.407
130.999	138.558	80.004	19.995	103.987	20.092	2.873	0.417
131.499	138.779	80.004	19.994	103.987	20.093	2.767	0.435
131.999	138.998	80.004	19.995	103.987	20.094	2.713	0.442
132.499	139.231	80.005	19.994	103.985	20.092	2.837	0.446
132.999	139.442	80.006	19.994	103.984	20.092	2.867	0.449
133.499	139.639	80.004	19.995	103.985	20.090	3.012	0.426
133.999	139.890	80.004	19.995	103.983	20.090	3.008	0.427
134.499	140.082	80.003	19.994	103.983	20.088	3.106	0.446
134.999	140.315	80.014	19.996	103.985	20.089	3.075	0.434
135.499	140.520	80.005	19.995	103.984	20.091	2.965	0.431
135.999	140.747	80.008	19.994	103.982	20.090	3.019	0.435
136.499	140.997	80.008	19.994	103.984	20.089	3.060	0.454
136.999	141.185	80.007	19.995	103.983	20.091	2.912	0.458
137.499	141.410	80.007	19.994	103.982	20.088	3.111	0.426
137.999	141.628	80.004	19.993	103.984	20.089	3.062	0.428
138.499	141.857	80.005	19.993	103.983	20.089	3.091	0.445
138.999	142.073	80.007	19.994	103.984	20.090	3.030	0.446
139.499	142.280	80.007	19.994	103.984	20.090	2.985	0.434
139.999	142.522	80.005	19.993	103.984	20.091	2.946	0.436
140.499	142.734	80.007	19.994	103.983	20.093	2.769	0.452
140.999	142.994	80.007	19.994	103.983	20.094	2.762	0.463
141.499	143.263	80.006	19.993	103.981	20.092	2.845	0.500
141.999	143.472	80.006	19.992	103.982	20.091	2.901	0.504
142.499	143.695	80.005	19.993	103.981	20.092	2.862	0.455
142.999	143.951	80.006	19.993	103.982	20.093	2.818	0.455
143.499	144.138	80.004	19.993	103.985	20.094	2.734	0.461
143.999	144.398	80.004	19.993	103.987	20.094	2.743	0.445
144.499	144.601	80.006	19.993	103.987	20.092	2.844	0.455
144.999	144.849	80.004	19.992	103.987	20.093	2.807	0.457
145.499	145.069	80.007	19.994	103.987	20.092	2.874	0.460
145.999	145.277	80.006	19.994	103.984	20.092	2.863	0.449
146.499	145.503	79.999	19.993	103.980	20.093	2.801	0.431
146.999	145.767	80.008	19.993	103.979	20.093	2.792	0.462
147.499	145.990	80.009	19.993	103.984	20.093	2.811	0.488
147.999	146.213	80.005	19.993	103.988	20.093	2.809	0.466
148.499	146.408	80.007	19.993	103.988	20.092	2.839	0.432
148.999	146.656	80.005	19.996	103.990	20.093	2.824	0.431
149.499	146.906	80.006	19.994	103.990	20.092	2.841	0.471
149.999	147.149	80.009	19.994	103.986	20.097	2.542	0.496
150.499	147.383	80.003	19.995	103.983	20.093	2.797	0.485
150.999	147.628	80.010	19.993	103.987	20.093	2.764	0.477
151.499	147.823	80.005	19.994	103.992	20.094	2.700	0.459
151.999	148.087	80.008	19.993	103.994	20.094	2.698	0.450
152.499	148.316	80.008	19.993	103.997	20.098	2.488	0.476
152.999	148.558	80.010	19.992	103.996	20.093	2.764	0.482
153.499	148.818	80.003	19.994	103.993	20.092	2.856	0.487
153.999	149.058	80.007	19.992	103.988	20.094	2.696	0.501
154.499	149.288	80.007	19.994	103.988	20.091	2.919	0.485
154.999	149.490	80.002	19.994	103.985	20.095	2.664	0.451
155.499	149.774	80.008	19.994	103.984	20.092	2.876	0.459
155.999	150.001	80.008	19.993	103.983	20.093	2.816	0.498
156.499	150.237	80.006	19.993	103.983	20.094	2.749	0.487
156.999	150.507	80.008	19.993	103.982	20.095	2.647	0.485
157.499	150.736	80.009	19.993	103.983	20.095	2.690	0.503
157.999	150.973	80.007	19.993	103.984	20.094	2.743	0.482
158.499	151.243	80.010	19.993	103.986	20.096	2.562	0.486
158.999	151.425	80.009	19.992	103.986	20.093	2.775	0.479
159.499	151.660	80.006	19.994	103.986	20.096	2.574	0.434
159.999	151.929	80.008	19.992	103.984	20.097	2.553	0.461
160.499	152.161	80.007	19.993	103.984	20.095	2.649	0.503
160.999	152.414	80.007	19.993	103.982	20.096	2.566	0.493
161.499	152.673	80.007	19.994	103.981	20.093	2.826	0.498
161.999	152.900	80.010	19.993	103.983	20.091	2.912	0.499
162.499	153.147	80.007	19.993	103.985	20.092	2.837	0.481
162.999	153.405	80.009	19.993	103.986	20.094	2.722	0.490
163.499	153.645	80.009	19.993	103.987	20.094	2.760	0.501
163.999	153.879	80.010	19.994	103.987	20.100	2.296	0.486
164.499	154.090	80.009	19.994	103.985	20.097	2.536	0.459
164.999	154.336	80.006	19.992	103.983	20.095	2.637	0.451
165.499	154.595	80.008	19.994	103.983	20.092	2.872	0.481
165.999	154.846	80.006	19.994	103.983	20.095	2.632	0.508
166.499	155.066	80.012	19.993	103.984	20.091	2.940	0.490
166.999	155.290	80.007	19.995	103.985	20.093	2.788	0.457
167.499	155.499	80.012	19.993	103.982	20.094	2.700	0.439
167.999	155.759	80.003	19.996	103.982	20.092	2.884	0.451
168.499	155.987	80.006	19.994	103.977	20.097	2.546	0.478
168.999	156.315	80.010	19.992	103.977	20.096	2.619	0.522
169.499	156.549	80.004	19.994	103.978	20.092	2.852	0.559
169.999	156.759	80.004	19.994	103.980	20.092	2.839	0.503
170.499	157.011	80.010	19.993	103.979	20.096	2.621	0.453
170.999	157.265	80.008	19.994	103.983	20.094	2.718	0.484
171.499	157.525	80.009	19.993	103.984	20.095	2.657	0.510
171.999	157.774	80.008	19.994	103.983	20.095	2.638	0.511
172.499	158.023	80.009	19.993	103.983	20.096	2.585	0.503
172.999	158.288	80.004	19.994	103.985	20.098	2.446	0.506
173.499	158.479	80.008	19.993	103.984	20.097	2.501	0.485
173.999	158.747	80.000	19.993	103.984	20.098	2.459	0.457
174.499	159.014	80.004	19.995	103.984	20.097	2.508	0.497
174.999	159.211	80.015	19.991	103.980	20.097	2.497	0.500
175.499	159.496	80.006	19.993	103.975	20.096	2.568	0.473
175.999	159.735	80.006	19.992	103.971	20.096	2.568	0.503
176.499	159.958	80.003	19.993	103.972	20.098	2.486	0.493
176.999	160.193	80.004	19.994	103.971	20.096	2.591	0.460
177.499	160.521	80.011	19.993	103.975	20.098	2.467	0.510
177.999	160.703	80.000	19.997	103.980	20.096	2.589	0.536
178.499	160.960	80.012	19.992	103.979	20.097	2.491	0.475
178.999	161.230	80.018	19.993	103.978	20.097	2.499	0.483
179.499	161.451	80.009	19.993	103.979	20.097	2.549	0.509
179.999	161.747	80.010	19.992	103.977	20.097	2.536	0.504
180.499	161.964	80.006	19.993	103.974	20.099	2.377	0.515
180.999	162.194	80.007	19.992	103.980	20.093	2.771	0.480
181.499	162.475	80.014	19.992	103.981	20.095	2.641	0.479
181.999	162.717	80.009	19.993	103.982	20.098	2.455	0.517
182.499	162.947	80.007	19.992	103.984	20.097	2.525	0.497
182.999	163.218	80.005	19.994	103.985	20.095	2.670	0.486
183.499	163.445	80.004	19.992	103.985	20.095	2.681	0.500
183.999	163.698	80.011	19.992	103.986	20.098	2.440	0.489
184.499	163.952	80.011	19.992	103.984	20.095	2.660	0.493
184.999	164.187	80.012	19.992	103.985	20.098	2.469	0.498
185.499	164.447	80.011	19.992	103.986	20.095	2.690	0.492
185.999	164.719	80.010	19.992	103.985	20.096	2.559	0.513
186.499	164.993	80.014	19.992	103.983	20.098	2.433	0.539
186.999	165.260	80.014	19.994	103.986	20.096	2.580	0.544
187.499	165.497	80.011	19.993	103.983	20.099	2.414	0.522
187.999	165.783	80.009	19.992	103.981	20.096	2.623	0.514
188.499	166.006	80.015	19.992	103.984	20.099	2.389	0.516
188.999	166.266	80.009	19.991	103.984	20.099	2.389	0.496
189.499	166.556	80.014	19.992	103.984	20.098	2.465	0.516
189.999	166.788	80.015	19.994	103.985	20.101	2.273	0.536
190.499	166.976	80.011	19.993	103.986	20.097	2.555	0.471
190.999	167.274	80.011	19.992	103.981	20.095	2.660	0.453
191.499	167.527	80.008	19.992	103.983	20.098	2.442	0.519
191.999	167.775	80.010	19.993	103.981	20.099	2.420	0.526
192.499	168.038	80.005	19.994	103.978	20.098	2.423	0.506
192.999	168.240	79.995	19.994	103.979	20.099	2.376	0.489
193.499	168.544	79.996	19.993	103.981	20.101	2.277	0.486
193.999	168.795	79.998	19.994	103.978	20.098	2.436	0.531
194.499	169.014	80.008	19.993	103.977	20.099	2.376	0.512
194.999	169.267	80.007	19.993	103.980	20.099	2.389	0.471
195.499	169.535	80.007	19.994	103.980	20.097	2.515	0.496
195.999	169.788	80.002	19.993	103.982	20.098	2.449	0.521
196.499	170.040	80.013	19.992	103.983	20.100	2.294	0.513
196.999	170.297	80.005	19.994	103.986	20.097	2.500	0.507
197.499	170.529	80.004	19.994	103.985	20.101	2.254	0.499
197.999	170.786	80.000	19.995	103.985	20.096	2.566	0.489
198.499	171.059	80.006	19.993	103.979	20.096	2.607	0.510
198.999	171.306	80.005	19.994	103.976	20.096	2.586	0.525
199.499	171.560	80.006	19.994	103.972	20.097	2.543	0.511
199.999	171.819	80.009	19.995	103.971	20.097	2.534	0.507
200.499	172.065	80.002	19.995	103.971	20.094	2.754	0.509
200.999	172.342	80.006	19.994	103.975	20.099	2.417	0.514
201.499	172.564	80.014	19.994	103.977	20.098	2.443	0.510
201.999	172.806	80.008	19.995	103.979	20.099	2.412	0.482
202.499	173.094	80.023	19.992	103.979	20.100	2.351	0.497
202.999	173.321	80.006	19.995	103.979	20.101	2.256	0.523
203.499	173.617	80.010	19.994	103.977	20.097	2.500	0.519
203.999	173.830	80.006	19.994	103.976	20.097	2.507	0.516
204.499	174.081	80.013	19.993	103.969	20.098	2.442	0.486
204.999	174.331	80.012	19.992	103.969	20.098	2.434	0.483
205.499	174.595	80.007	19.993	103.969	20.095	2.628	0.508
205.999	174.867	80.006	19.993	103.969	20.099	2.398	0.525
206.499	175.087	80.009	19.993	103.968	20.097	2.517	0.514
206.999	175.350	80.008	19.993	103.967	20.097	2.552	0.488
207.499	175.619	80.009	19.992	103.965	20.099	2.387	0.508
207.999	175.840	79.987	19.996	103.961	20.097	2.498	0.511
208.499	176.129	80.008	19.993	103.955	20.098	2.426	0.499
208.999	176.380	80.010	19.993	103.955	20.100	2.340	0.525
209.499	176.607	80.012	19.993	103.964	20.097	2.515	0.509
209.999	176.835	80.006	19.995	103.964	20.100	2.295	0.467
210.499	177.131	80.006	19.994	103.961	20.100	2.317	0.490
210.999	177.364	80.012	19.992	103.966	20.097	2.516	0.526
211.499	177.653	80.004	19.994	103.964	20.097	2.524	0.525
211.999	177.880	80.004	19.993	103.955	20.095	2.637	0.519
212.499	178.107	80.003	19.994	103.952	20.099	2.411	0.485
212.999	178.383	80.009	19.994	103.953	20.099	2.419	0.478
213.499	178.625	80.006	19.994	103.952	20.096	2.603	0.510
213.999	178.882	80.013	19.993	103.949	20.098	2.428	0.509
214.499	179.126	80.010	19.992	103.953	20.097	2.511	0.500
214.999	179.377	80.008	19.994	103.956	20.100	2.287	0.498
215.499	179.640	80.008	19.995	103.958	20.099	2.385	0.504
215.999	179.908	80.008	19.994	103.957	20.099	2.383	0.523
216.499	180.159	80.018	19.994	103.956	20.098	2.470	0.525
216.999	180.408	80.009	19.995	103.952	20.097	2.552	0.509
217.499	180.651	80.004	19.995	103.947	20.096	2.573	0.496
217.999	180.907	80.006	19.994	103.946	20.100	2.351	0.495
218.499	181.192	80.005	19.995	103.943	20.098	2.458	0.520
218.999	181.399	80.008	19.994	103.943	20.099	2.417	0.516
219.499	181.649	80.004	19.994	103.944	20.097	2.537	0.474
219.999	181.946	80.013	19.993	103.945	20.098	2.453	0.502
220.499	182.152	79.990	19.995	103.945	20.099	2.411	0.525
220.999	182.426	80.001	19.996	103.945	20.100	2.344	0.492
221.499	182.665	80.004	19.994	103.944	20.098	2.443	0.497
221.999	182.930	80.006	19.994	103.941	20.097	2.500	0.508
222.499	183.137	80.007	19.995	103.942	20.100	2.331	0.487
222.999	183.460	80.007	19.996	103.942	20.099	2.378	0.501
223.499	183.673	80.008	19.996	103.941	20.100	2.348	0.533
223.999	183.914	80.008	19.994	103.942	20.101	2.254	0.495
224.499	184.216	80.014	19.993	103.943	20.102	2.216	0.498
224.999	184.426	80.009	19.993	103.944	20.101	2.244	0.528
225.499	184.681	80.006	19.995	103.945	20.099	2.374	0.489
225.999	184.928	80.008	19.996	103.947	20.099	2.413	0.484
226.499	185.227	80.009	19.995	103.948	20.101	2.252	0.524
226.999	185.483	80.013	19.995	103.949	20.099	2.395	0.550
227.499	185.735	79.994	19.996	103.946	20.101	2.237	0.532
227.999	185.996	80.005	19.995	103.946	20.100	2.331	0.510
228.499	186.248	80.001	19.996	103.944	20.097	2.490	0.513
228.999	186.497	80.011	19.995	103.941	20.102	2.195	0.507
229.499	186.759	80.008	19.995	103.941	20.100	2.314	0.506
229.999	187.031	80.005	19.995	103.941	20.102	2.165	0.523
230.499	187.262	80.009	19.994	103.942	20.103	2.130	0.519
230.999	187.518	80.007	19.994	103.942	20.103	2.132	0.495
231.499	187.768	80.008	19.996	103.943	20.102	2.190	0.497
232.000	188.017	80.010	19.993	103.943	20.102	2.177	0.503
232.499	188.286	80.006	19.993	103.940	20.105	1.961	0.508
232.999	188.483	80.010	19.994	103.939	20.106	1.944	0.492
233.499	188.769	80.013	19.993	103.940	20.101	2.272	0.474
233.999	189.044	80.008	19.994	103.942	20.100	2.297	0.522
234.499	189.260	80.014	19.994	103.945	20.099	2.385	0.526
234.999	189.496	80.008	19.993	103.948	20.102	2.173	0.472
235.499	189.751	80.010	19.993	103.949	20.102	2.203	0.471
235.999	190.022	80.007	19.994	103.949	20.102	2.205	0.508
236.499	190.266	80.008	19.993	103.948	20.101	2.259	0.521
236.999	190.570	80.009	19.992	103.947	20.099	2.391	0.532
237.499	190.781	80.007	19.993	103.947	20.101	2.274	0.531
237.999	191.064	80.008	19.993	103.948	20.101	2.242	0.504
238.499	191.330	80.013	19.992	103.946	20.100	2.319	0.521
238.999	191.547	80.008	19.993	103.942	20.099	2.385	0.516
239.499	191.792	80.010	19.993	103.942	20.101	2.256	0.472
239.999	192.047	80.009	19.993	103.941	20.102	2.186	0.481
240.499	192.285	79.999	19.993	103.940	20.097	2.544	0.497
240.999	192.515	80.007	19.994	103.942	20.100	2.340	0.480
241.499	192.794	80.008	19.992	103.946	20.100	2.324	0.488
241.999	193.036	80.011	19.993	103.946	20.099	2.407	0.515
242.500	193.319	80.005	19.994	103.947	20.101	2.236	0.523
242.999	193.527	80.009	19.994	103.947	20.100	2.287	0.508
243.499	193.804	80.008	19.993	103.946	20.104	2.041	0.488
243.999	194.076	80.010	19.993	103.946	20.103	2.120	0.517
244.499	194.311	80.010	19.994	103.945	20.101	2.231	0.528
244.999	194.543	80.011	19.993	103.944	20.101	2.267	0.487
245.499	194.803	80.010	19.992	103.941	20.103	2.107	0.480
245.999	195.030	80.008	19.993	103.939	20.099	2.368	0.490
246.499	195.312	80.019	19.993	103.938	20.100	2.340	0.498
246.999	195.567	80.024	19.990	103.937	20.099	2.372	0.523
247.499	195.772	80.005	19.994	103.941	20.102	2.205	0.498
247.999	196.038	80.012	19.993	103.942	20.101	2.238	0.466
248.499	196.286	80.003	19.994	103.946	20.102	2.182	0.493
248.999	196.531	80.016	19.993	103.946	20.103	2.090	0.503
249.499	196.769	80.019	19.991	103.949	20.103	2.135	0.488
249.999	196.997	80.019	19.994	103.949	20.103	2.113	0.475
250.499	197.278	80.006	19.994	103.948	20.097	2.511	0.488
250.999	197.461	79.999	19.995	103.943	20.101	2.236	0.487
251.499	197.744	80.003	19.995	103.936	20.099	2.394	0.465
251.999	197.990	80.007	19.994	103.927	20.100	2.325	0.498
252.499	198.258	80.006	19.993	103.917	20.099	2.360	0.521
252.999	198.497	80.005	19.994	103.916	20.100	2.314	0.510
253.499	198.769	79.997	19.994	103.917	20.101	2.220	0.509
253.999	198.990	80.008	19.994	103.922	20.101	2.233	0.502
254.499	199.247	80.009	19.993	103.927	20.099	2.400	0.486
254.999	199.512	80.009	19.994	103.933	20.104	2.079	0.500
255.499	199.762	80.011	19.992	103.936	20.101	2.231	0.518
255.999	199.982	80.008	19.993	103.939	20.099	2.358	0.492
256.499	200.241	79.997	19.994	103.941	20.100	2.300	0.475
256.999	200.469	80.004	19.994	103.941	20.101	2.253	0.483
257.499	200.782	80.008	19.993	103.942	20.103	2.116	0.514
257.999	201.007	80.009	19.993	103.942	20.100	2.291	0.540
258.499	201.255	80.009	19.992	103.941	20.101	2.231	0.505
258.999	201.479	80.008	19.993	103.940	20.102	2.158	0.472
259.499	201.749	80.008	19.992	103.940	20.102	2.216	0.483
259.999	202.000	80.011	19.992	103.939	20.100	2.296	0.507
260.499	202.231	80.004	19.993	103.938	20.101	2.277	0.501
260.999	202.500	80.005	19.994	103.936	20.102	2.159	0.491
261.499	202.742	79.994	19.995	103.935	20.100	2.304	0.505
261.999	202.973	80.005	19.994	103.932	20.098	2.452	0.492
262.499	203.241	80.003	19.995	103.933	20.101	2.246	0.486
262.999	203.467	80.011	19.993	103.932	20.099	2.354	0.497
263.499	203.705	80.010	19.993	103.934	20.099	2.413	0.479
263.999	203.963	80.028	19.993	103.935	20.100	2.349	0.480
264.499	204.223	79.997	19.995	103.940	20.100	2.349	0.507
264.999	204.492	80.011	19.994	103.935	20.102	2.182	0.524
265.499	204.699	80.007	19.994	103.937	20.101	2.265	0.503
265.999	204.950	80.007	19.993	103.932	20.100	2.315	0.467
266.499	205.205	80.016	19.992	103.930	20.102	2.173	0.482
266.999	205.459	80.013	19.994	103.931	20.103	2.101	0.507
267.500	205.675	80.000	19.994	103.935	20.100	2.291	0.490
268.000	205.936	80.007	19.993	103.934	20.101	2.252	0.474
268.499	206.215	80.011	19.993	103.935	20.101	2.282	0.509
268.999	206.468	80.010	19.993	103.935	20.100	2.338	0.536
269.499	206.713	80.008	19.992	103.932	20.101	2.240	0.515
269.999	206.947	80.008	19.993	103.929	20.102	2.195	0.489
270.499	207.132	80.005	19.993	103.926	20.100	2.300	0.449
270.999	207.437	80.015	19.991	103.924	20.100	2.347	0.454
271.499	207.685	80.003	19.994	103.920	20.101	2.240	0.522
271.999	207.951	80.005	19.992	103.917	20.101	2.283	0.534
272.499	208.151	79.998	19.995	103.917	20.101	2.261	0.490
272.999	208.404	80.016	19.992	103.916	20.103	2.133	0.459
273.499	208.674	80.008	19.993	103.918	20.102	2.180	0.488
273.999	208.906	80.006	19.994	103.921	20.102	2.193	0.513
274.499	209.168	80.005	19.993	103.923	20.100	2.315	0.498
274.999	209.444	80.009	19.993	103.925	20.104	2.073	0.516
275.499	209.670	79.995	19.994	103.924	20.102	2.210	0.520
275.999	209.907	80.009	19.993	103.926	20.100	2.300	0.482
276.499	210.188	80.010	19.992	103.928	20.102	2.218	0.490
276.999	210.390	80.006	19.993	103.930	20.103	2.137	0.501
277.499	210.671	80.000	19.992	103.932	20.102	2.206	0.483
277.999	210.922	80.007	19.992	103.937	20.103	2.144	0.507
278.499	211.137	80.009	19.993	103.936	20.102	2.189	0.499
278.999	211.377	80.011	19.994	103.934	20.102	2.165	0.460
279.499	211.643	80.008	19.994	103.934	20.100	2.308	0.480
279.999	211.884	80.003	19.994	103.935	20.101	2.270	0.506
280.499	212.110	80.008	19.993	103.934	20.102	2.199	0.487
280.999	212.370	80.023	19.991	103.933	20.101	2.272	0.476
281.499	212.646	80.010	19.992	103.935	20.101	2.232	0.511
281.999	212.875	80.012	19.993	103.933	20.101	2.253	0.521
282.499	213.108	80.008	19.995	103.929	20.101	2.276	0.484
282.999	213.357	80.008	19.993	103.930	20.100	2.339	0.472
283.499	213.606	80.008	19.992	103.933	20.104	2.015	0.489
283.999	213.856	80.009	19.993	103.933	20.100	2.319	0.499
284.499	214.089	80.004	19.995	103.934	20.101	2.221	0.492
284.999	214.355	80.007	19.992	103.933	20.100	2.323	0.491
285.499	214.577	80.006	19.995	103.935	20.100	2.323	0.493
285.999	214.854	80.008	19.995	103.934	20.102	2.174	0.493
286.499	215.087	80.005	19.994	103.935	20.101	2.248	0.504
286.999	215.349	80.007	19.993	103.937	20.101	2.249	0.503
287.499	215.603	80.010	19.994	103.936	20.102	2.201	0.506
288.000	215.834	80.005	19.993	103.934	20.101	2.276	0.501
288.500	216.101	80.005	19.994	103.931	20.102	2.191	0.491
289.000	216.305	80.006	19.994	103.925	20.103	2.150	0.485
289.500	216.567	80.007	19.994	103.923	20.101	2.223	0.469
289.999	216.827	80.008	19.993	103.924	20.101	2.236	0.494
290.499	217.051	79.999	19.995	103.921	20.102	2.178	0.503
290.999	217.323	80.010	19.994	103.919	20.100	2.345	0.490
291.499	217.562	80.002	19.994	103.918	20.099	2.402	0.503
291.999	217.780	80.009	19.994	103.912	20.101	2.281	0.484
292.499	218.026	80.010	19.994	103.909	20.099	2.387	0.461
292.999	218.313	80.004	19.994	103.910	20.100	2.294	0.499
293.499	218.543	80.003	19.995	103.915	20.099	2.375	0.524
293.999	218.798	80.005	19.995	103.919	20.099	2.386	0.501
294.499	219.022	80.004	19.994	103.925	20.099	2.394	0.482
295.000	219.278	80.006	19.993	103.928	20.100	2.306	0.479
295.500	219.520	80.007	19.993	103.925	20.098	2.445	0.489
295.999	219.778	80.009	19.995	103.919	20.103	2.148	0.499
296.499	219.992	80.005	19.994	103.921	20.102	2.165	0.486
296.999	220.259	80.004	19.994	103.921	20.101	2.266	0.476
297.499	220.476	80.002	19.994	103.923	20.101	2.263	0.482
297.999	220.715	80.005	19.994	103.926	20.097	2.529	0.470
298.499	220.924	80.006	19.995	103.930	20.100	2.300	0.453
298.999	221.194	80.007	19.993	103.925	20.098	2.469	0.463
299.499	221.443	80.007	19.993	103.925	20.099	2.386	0.499
299.999	221.705	80.007	19.993	103.924	20.096	2.576	0.515
300.499	221.950	80.006	19.994	103.922	20.099	2.409	0.509
300.999	222.171	80.010	19.993	103.920	20.098	2.439	0.487
301.499	222.452	80.005	19.995	103.927	20.096	2.586	0.484
301.999	222.658	80.006	19.995	103.926	20.098	2.450	0.494
302.499	222.956	80.005	19.995	103.927	20.099	2.401	0.496
302.999	223.190	80.008	19.994	103.931	20.100	2.304	0.518
303.499	223.433	80.006	19.993	103.929	20.096	2.570	0.504
303.999	223.668	80.006	19.992	103.923	20.099	2.377	0.478
304.499	223.911	80.006	19.994	103.922	20.100	2.306	0.478
304.999	224.140	80.006	19.995	103.922	20.101	2.281	0.475
305.499	224.367	80.005	19.994	103.917	20.098	2.464	0.464
305.999	224.636	80.009	19.994	103.916	20.098	2.432	0.476
306.499	224.850	80.005	19.993	103.917	20.098	2.447	0.489
306.999	225.097	80.003	19.994	103.920	20.099	2.356	0.472
307.500	225.389	80.005	19.993	103.920	20.100	2.309	0.500
308.000	225.625	80.004	19.994	103.928	20.101	2.277	0.533
308.499	225.899	80.003	19.994	103.933	20.100	2.332	0.519
308.999	226.142	80.007	19.994	103.936	20.099	2.356	0.514
309.499	226.394	80.005	19.993	103.931	20.098	2.482	0.506
309.999	226.640	80.005	19.994	103.926	20.100	2.328	0.497
310.499	226.838	80.005	19.994	103.920	20.099	2.409	0.471
310.999	227.130	80.003	19.994	103.922	20.101	2.279	0.466
311.499	227.357	80.006	19.994	103.923	20.102	2.161	0.504
311.999	227.576	80.005	19.994	103.925	20.100	2.302	0.483
312.499	227.857	80.007	19.995	103.925	20.099	2.390	0.474
312.999	228.105	80.003	19.995	103.923	20.100	2.328	0.515
313.499	228.355	80.004	19.993	103.919	20.101	2.236	0.513
313.999	228.594	80.002	19.995	103.916	20.102	2.185	0.493
314.500	228.857	80.007	19.995	103.914	20.100	2.311	0.496
315.000	229.091	80.004	19.994	103.921	20.100	2.290	0.499
315.499	229.377	80.005	19.994	103.928	20.097	2.508	0.509
315.999	229.608	80.005	19.995	103.930	20.098	2.467	0.519
316.499	229.866	80.004	19.995	103.931	20.101	2.257	0.503
316.999	230.114	80.006	19.994	103.937	20.104	2.046	0.497
317.499	230.376	80.007	19.994	103.929	20.102	2.176	0.508
317.999	230.630	80.004	19.995	103.922	20.099	2.386	0.513
318.499	230.867	80.005	19.995	103.918	20.102	2.210	0.503
318.999	231.143	80.005	19.995	103.914	20.099	2.362	0.502
319.499	231.356	80.004	19.995	103.909	20.102	2.202	0.501
319.999	231.613	80.006	19.995	103.908	20.099	2.360	0.479
320.499	231.875	80.007	19.994	103.909	20.099	2.360	0.494
320.999	232.122	80.006	19.995	103.912	20.098	2.465	0.514
321.499	232.345	80.005	19.994	103.920	20.100	2.343	0.489
321.999	232.587	80.007	19.994	103.924	20.098	2.435	0.467
322.499	232.882	80.007	19.994	103.924	20.099	2.388	0.501
322.999	233.085	80.008	19.994	103.922	20.101	2.283	0.517
323.499	233.388	80.006	19.994	103.919	20.099	2.364	0.502
323.999	233.585	80.007	19.995	103.911	20.104	2.069	0.503
324.499	233.845	80.007	19.995	103.908	20.103	2.084	0.478
324.999	234.139	80.009	19.994	103.908	20.100	2.298	0.506
325.499	234.366	80.009	19.993	103.909	20.101	2.245	0.538
325.999	234.600	80.009	19.994	103.913	20.100	2.302	0.491
326.499	234.845	80.007	19.994	103.915	20.099	2.377	0.470
326.999	235.104	80.008	19.993	103.917	20.101	2.257	0.491
327.499	235.388	80.010	19.994	103.917	20.100	2.315	0.523
327.999	235.598	80.007	19.993	103.916	20.100	2.340	0.519
328.499	235.852	80.011	19.992	103.911	20.098	2.441	0.479
328.999	236.107	80.009	19.993	103.910	20.103	2.116	0.486
329.499	236.406	80.007	19.993	103.906	20.100	2.294	0.532
329.999	236.607	80.009	19.993	103.906	20.102	2.204	0.527
330.499	236.830	80.007	19.993	103.907	20.098	2.431	0.462
330.999	237.138	80.009	19.992	103.906	20.100	2.335	0.477
331.499	237.367	80.008	19.993	103.905	20.100	2.303	0.534
331.999	237.611	80.007	19.993	103.905	20.100	2.315	0.505
332.499	237.826	80.008	19.992	103.905	20.101	2.285	0.466
332.999	238.084	80.009	19.992	103.908	20.102	2.181	0.466
333.499	238.341	80.009	19.993	103.908	20.100	2.324	0.494
333.999	238.571	80.010	19.992	103.909	20.099	2.356	0.501
334.499	238.844	80.006	19.993	103.910	20.099	2.364	0.495
334.999	239.074	80.006	19.994	103.910	20.101	2.230	0.503
335.499	239.346	80.003	19.995	103.908	20.098	2.435	0.502
335.999	239.584	80.009	19.996	103.911	20.098	2.480	0.506
336.499	239.817	80.017	19.995	103.914	20.099	2.375	0.491
336.999	240.091	80.009	19.998	103.916	20.097	2.542	0.489
337.499	240.339	80.008	19.996	103.921	20.101	2.225	0.514
337.999	240.575	80.009	19.997	103.927	20.101	2.285	0.504
338.499	240.836	80.006	19.995	103.929	20.099	2.403	0.491
338.999	241.095	80.008	19.994	103.927	20.103	2.142	0.508
339.499	241.356	80.007	19.996	103.926	20.103	2.099	0.520
339.999	241.565	80.007	19.996	103.921	20.101	2.279	0.495
340.499	241.835	80.008	19.993	103.914	20.100	2.290	0.474
340.999	242.065	80.008	19.993	103.909	20.102	2.163	0.489
341.499	242.334	80.008	19.994	103.907	20.100	2.298	0.499
341.999	242.614	80.009	19.994	103.905	20.100	2.313	0.524
342.499	242.851	80.008	19.994	103.905	20.101	2.221	0.534
342.999	243.091	80.007	19.994	103.905	20.096	2.598	0.497
343.499	243.344	80.009	19.994	103.907	20.097	2.510	0.485
343.999	243.629	80.010	19.993	103.907	20.098	2.439	0.516
344.499	243.802	80.009	19.994	103.907	20.099	2.395	0.498
344.999	244.088	80.008	19.992	103.906	20.098	2.444	0.458
345.499	244.316	80.009	19.994	103.906	20.099	2.379	0.487
345.999	244.603	80.005	19.995	103.905	20.099	2.367	0.515
346.499	244.838	80.008	19.994	103.908	20.099	2.418	0.518
346.999	245.088	80.011	19.992	103.909	20.099	2.414	0.503
347.499	245.349	80.008	19.994	103.910	20.098	2.424	0.498
348.000	245.594	80.012	19.993	103.910	20.098	2.472	0.508
348.500	245.835	80.005	19.995	103.908	20.099	2.379	0.496
348.999	246.084	80.008	19.994	103.904	20.100	2.347	0.488
349.499	246.348	80.008	19.994	103.902	20.096	2.617	0.502
349.999	246.584	80.008	19.994	103.902	20.098	2.450	0.507
350.499	246.861	80.009	19.993	103.902	20.097	2.551	0.507
350.999	247.037	80.009	19.993	103.902	20.096	2.568	0.483
351.499	247.327	80.008	19.993	103.902	20.093	2.792	0.459
351.999	247.578	80.009	19.993	103.902	20.095	2.656	0.504
352.499	247.838	80.007	19.994	103.902	20.096	2.613	0.526
352.999	248.117	80.011	19.993	103.901	20.095	2.641	0.525
353.499	248.360	80.007	19.994	103.903	20.100	2.349	0.531
353.999	248.574	80.010	19.993	103.903	20.096	2.568	0.489
354.499	248.803	80.007	19.993	103.904	20.097	2.510	0.450
354.999	249.118	80.009	19.993	103.904	20.096	2.589	0.494
355.499	249.349	80.008	19.994	103.905	20.094	2.696	0.545
355.999	249.602	80.008	19.993	103.904	20.100	2.345	0.515
356.499	249.870	80.008	19.993	103.904	20.096	2.604	0.502
356.999	250.114	80.007	19.993	103.902	20.097	2.543	0.516
357.499	250.362	80.008	19.993	103.902	20.094	2.701	0.502
357.999	250.624	80.007	19.993	103.903	20.098	2.423	0.501
358.499	250.903	80.007	19.993	103.903	20.096	2.560	0.526
358.999	251.133	80.008	19.994	103.904	20.096	2.598	0.525
359.499	251.379	80.007	19.993	103.906	20.097	2.542	0.492
359.999	251.647	80.008	19.993	103.905	20.094	2.717	0.495
360.499	251.893	80.005	19.993	103.906	20.096	2.589	0.514
360.999	252.150	80.009	19.993	103.906	20.094	2.728	0.508
361.499	252.412	80.009	19.993	103.907	20.094	2.720	0.510
361.999	252.635	80.006	19.993	103.907	20.095	2.647	0.502
362.500	252.889	80.007	19.994	103.908	20.092	2.855	0.481
363.000	253.116	80.005	19.993	103.907	20.096	2.589	0.479
363.500	253.383	80.005	19.993	103.908	20.096	2.600	0.488
364.000	253.625	80.005	19.993	103.908	20.099	2.396	0.501
364.499	253.841	80.005	19.993	103.907	20.097	2.546	0.483
364.999	254.099	80.009	19.994	103.906	20.096	2.587	0.466
365.499	254.345	80.006	19.993	103.905	20.098	2.456	0.489
365.999	254.571	80.004	19.993	103.903	20.097	2.489	0.488
366.499	254.858	80.007	19.992	103.903	20.098	2.482	0.492
366.999	255.073	80.002	19.995	103.902	20.097	2.555	0.507
367.499	255.384	80.007	19.993	103.897	20.096	2.587	0.514
367.999	255.608	80.007	19.993	103.895	20.099	2.380	0.531
368.499	255.853	80.007	19.994	103.897	20.096	2.589	0.502
368.999	256.123	80.006	19.992	103.897	20.095	2.653	0.492
369.499	256.357	80.005	19.993	103.899	20.093	2.818	0.509
369.999	256.627	80.008	19.993	103.905	20.095	2.656	0.504
370.499	256.869	80.007	19.992	103.908	20.095	2.630	0.508
370.999	257.085	80.009	19.992	103.909	20.095	2.649	0.485
371.499	257.355	80.008	19.993	103.909	20.093	2.805	0.472
371.999	257.594	80.007	19.994	103.909	20.094	2.718	0.497
372.499	257.873	80.008	19.993	103.908	20.094	2.733	0.513
372.999	258.122	80.007	19.994	103.908	20.098	2.437	0.523
373.500	258.370	80.008	19.994	103.908	20.097	2.517	0.513
374.000	258.604	80.006	19.992	103.909	20.098	2.459	0.490
374.499	258.877	80.007	19.993	103.911	20.096	2.572	0.494
374.999	259.088	80.006	19.993	103.911	20.098	2.452	0.496
375.499	259.281	80.006	19.994	103.912	20.098	2.452	0.444
375.999	259.593	80.007	19.994	103.911	20.095	2.683	0.454
376.499	259.836	80.009	19.995	103.910	20.094	2.741	0.530
376.999	260.098	80.007	19.993	103.908	20.096	2.611	0.530
377.499	260.330	80.007	19.994	103.909	20.097	2.542	0.500
377.999	260.572	80.008	19.994	103.909	20.097	2.536	0.484
378.499	260.869	80.007	19.995	103.910	20.097	2.534	0.507
379.000	261.067	80.007	19.994	103.908	20.098	2.484	0.517
379.500	261.346	80.007	19.993	103.905	20.096	2.566	0.486
380.000	261.585	80.007	19.995	103.904	20.097	2.497	0.497
380.500	261.798	80.004	19.994	103.903	20.094	2.717	0.485
380.999	262.072	80.007	19.993	103.903	20.096	2.587	0.469
381.499	262.329	80.007	19.993	103.904	20.098	2.422	0.509
381.999	262.598	80.008	19.994	103.905	20.098	2.450	0.529
382.499	262.825	80.005	19.994	103.905	20.097	2.553	0.512
382.999	263.070	80.005	19.994	103.902	20.096	2.594	0.484
383.499	263.363	80.007	19.994	103.902	20.095	2.651	0.505
383.999	263.565	80.007	19.993	103.903	20.096	2.619	0.516
384.500	263.789	80.006	19.994	103.904	20.097	2.544	0.461
385.000	264.043	80.006	19.993	103.905	20.096	2.596	0.452
385.499	264.315	80.007	19.995	103.907	20.093	2.782	0.502
385.999	264.537	80.006	19.994	103.908	20.094	2.696	0.510
386.499	264.820	80.006	19.993	103.908	20.098	2.452	0.499
386.999	265.062	80.006	19.994	103.906	20.094	2.741	0.515
387.499	265.341	80.006	19.993	103.906	20.097	2.546	0.523
387.999	265.559	80.007	19.994	103.906	20.096	2.619	0.509
388.499	265.798	80.005	19.993	103.905	20.097	2.527	0.477
388.999	266.066	80.006	19.993	103.906	20.094	2.716	0.482
389.499	266.319	80.006	19.994	103.908	20.098	2.463	0.514
389.999	266.528	80.007	19.994	103.908	20.095	2.686	0.491
390.499	266.796	80.007	19.994	103.910	20.094	2.716	0.469
390.999	267.077	80.005	19.994	103.910	20.096	2.602	0.513
391.500	267.300	80.003	19.994	103.909	20.097	2.536	0.526
392.000	267.542	80.006	19.994	103.908	20.097	2.549	0.484
392.499	267.825	80.005	19.995	103.908	20.094	2.695	0.495
392.999	268.034	80.006	19.994	103.906	20.095	2.684	0.509
393.499	268.297	80.007	19.993	103.903	20.097	2.524	0.482
393.999	268.519	80.006	19.994	103.901	20.095	2.624	0.479
394.499	268.776	80.006	19.994	103.901	20.099	2.416	0.482
394.999	269.070	80.006	19.995	103.899	20.096	2.607	0.515
395.499	269.302	80.006	19.994	103.898	20.095	2.654	0.539
395.999	269.561	80.007	19.993	103.901	20.095	2.637	0.508
396.499	269.808	80.007	19.993	103.902	20.097	2.553	0.498
396.999	270.044	80.007	19.993	103.899	20.095	2.677	0.495
397.499	270.301	80.007	19.994	103.901	20.096	2.617	0.488
397.999	270.575	80.007	19.993	103.900	20.096	2.583	0.512
398.499	270.828	80.008	19.993	103.901	20.094	2.750	0.529
398.999	271.057	80.008	19.993	103.901	20.095	2.624	0.504
399.500	271.333	80.007	19.994	103.902	20.094	2.703	0.494
400.000	271.567	80.007	19.992	103.899	20.095	2.635	0.508
400.499	271.843	80.007	19.994	103.900	20.095	2.626	0.510
400.999	272.077	80.009	19.994	103.900	20.093	2.827	0.510
401.499	272.317	80.007	19.994	103.895	20.094	2.693	0.492
401.999	272.558	80.006	19.993	103.895	20.096	2.562	0.477
402.499	272.789	80.008	19.993	103.892	20.095	2.669	0.476
402.999	273.046	80.007	19.994	103.887	20.096	2.571	0.480
403.499	273.307	80.008	19.994	103.888	20.096	2.598	0.503
403.999	273.561	80.008	19.994	103.889	20.098	2.483	0.516
404.499	273.776	80.009	19.993	103.885	20.097	2.526	0.492
404.999	274.055	80.007	19.993	103.887	20.096	2.575	0.482
405.499	274.258	80.008	19.996	103.891	20.095	2.650	0.488
405.999	274.538	80.006	19.995	103.891	20.093	2.821	0.483
406.499	274.745	80.008	19.994	103.893	20.093	2.818	0.485
407.000	275.034	80.008	19.994	103.897	20.096	2.564	0.491
407.500	275.292	80.009	19.994	103.896	20.094	2.695	0.521
407.999	275.503	80.008	19.994	103.896	20.095	2.686	0.508
408.499	275.786	80.008	19.994	103.891	20.095	2.669	0.482
408.999	276.019	80.008	19.994	103.888	20.092	2.859	0.505
409.499	276.248	80.006	19.995	103.887	20.095	2.665	0.489
409.999	276.500	80.008	19.994	103.886	20.094	2.746	0.472
410.499	276.742	80.007	19.995	103.887	20.093	2.818	0.487
411.000	276.988	80.006	19.996	103.889	20.092	2.878	0.490
411.500	277.237	80.007	19.995	103.888	20.096	2.609	0.492
411.999	277.467	80.006	19.994	103.887	20.095	2.638	0.487
412.499	277.733	80.008	19.995	103.888	20.091	2.897	0.488
412.999	277.989	80.009	19.996	103.888	20.092	2.893	0.509
413.499	278.212	80.007	19.994	103.887	20.098	2.422	0.500
413.999	278.439	80.007	19.995	103.889	20.094	2.707	0.465
414.499	278.728	80.007	19.995	103.888	20.094	2.724	0.483
414.999	278.945	80.007	19.995	103.888	20.096	2.598	0.511
415.499	279.174	80.007	19.995	103.886	20.097	2.527	0.477
415.999	279.465	80.005	19.995	103.891	20.092	2.885	0.483
416.499	279.674	80.006	19.995	103.892	20.094	2.739	0.510
416.999	279.947	80.008	19.995	103.895	20.092	2.835	0.491
417.499	280.170	80.008	19.995	103.896	20.094	2.698	0.489
417.999	280.442	80.008	19.995	103.892	20.096	2.600	0.495
418.500	280.681	80.008	19.994	103.890	20.093	2.790	0.503
419.000	280.926	80.007	19.993	103.885	20.098	2.478	0.497
419.499	281.131	80.008	19.994	103.885	20.095	2.688	0.467
419.999	281.427	80.007	19.995	103.888	20.093	2.827	0.476
420.499	281.650	80.007	19.994	103.888	20.094	2.713	0.510
420.999	281.878	80.009	19.994	103.891	20.093	2.805	0.485
421.499	282.131	80.006	19.994	103.896	20.093	2.818	0.466
421.999	282.339	80.008	19.993	103.897	20.090	3.007	0.471
422.499	282.650	80.007	19.994	103.897	20.094	2.716	0.490
422.999	282.881	80.008	19.994	103.903	20.093	2.799	0.531
423.499	283.143	80.007	19.994	103.901	20.089	3.034	0.517
423.999	283.388	80.008	19.994	103.901	20.091	2.953	0.500
424.499	283.628	80.009	19.994	103.902	20.089	3.092	0.496
424.999	283.851	80.010	19.993	103.902	20.091	2.959	0.474
425.499	284.090	80.009	19.992	103.902	20.089	3.092	0.463
425.999	284.348	80.009	19.993	103.905	20.087	3.199	0.480
426.499	284.608	80.006	19.993	103.906	20.088	3.128	0.508
426.999	284.856	80.010	19.992	103.906	20.091	2.940	0.513
427.499	285.110	80.010	19.993	103.905	20.090	3.015	0.504
427.999	285.367	80.009	19.992	103.903	20.090	2.970	0.506
428.499	285.624	80.008	19.993	103.903	20.091	2.929	0.512
428.999	285.884	80.009	19.993	103.902	20.092	2.895	0.516
429.499	286.123	80.008	19.993	103.902	20.093	2.795	0.508
429.999	286.420	80.009	19.993	103.902	20.091	2.955	0.517
430.500	286.644	80.009	19.992	103.904	20.091	2.949	0.529
431.000	286.842	80.009	19.992	103.904	20.092	2.891	0.472
431.500	287.137	80.011	19.991	103.904	20.090	3.021	0.457
432.000	287.379	80.009	19.992	103.902	20.089	3.045	0.515
432.499	287.691	80.008	19.993	103.902	20.091	2.962	0.546
432.999	287.909	80.010	19.993	103.901	20.090	3.007	0.542
433.499	288.163	80.008	19.993	103.900	20.093	2.769	0.500
433.999	288.342	80.010	19.993	103.901	20.091	2.928	0.452
434.499	288.643	80.009	19.992	103.902	20.089	3.032	0.457
434.999	288.863	80.008	19.994	103.903	20.092	2.895	0.501
435.500	289.125	80.008	19.993	103.904	20.090	2.985	0.501
436.000	289.370	80.009	19.993	103.905	20.093	2.807	0.495
436.500	289.626	80.004	19.993	103.905	20.094	2.731	0.504
436.999	289.871	80.007	19.993	103.905	20.088	3.131	0.501
437.499	290.155	80.010	19.992	103.905	20.092	2.867	0.515
437.999	290.349	80.008	19.992	103.906	20.095	2.639	0.503
438.499	290.626	80.004	19.995	103.905	20.093	2.791	0.475
438.999	290.854	80.005	19.996	103.905	20.094	2.731	0.488
439.499	291.142	80.004	19.995	103.905	20.091	2.928	0.510
439.999	291.382	80.006	19.995	103.904	20.092	2.838	0.522
440.499	291.726	80.006	19.995	103.904	20.094	2.727	0.556
440.999	291.896	80.006	19.995	103.903	20.092	2.843	0.549
441.499	292.214	80.006	19.993	103.904	20.093	2.826	0.501
441.999	292.423	80.008	19.994	103.905	20.092	2.862	0.507
442.499	292.694	80.008	19.993	103.906	20.091	2.952	0.504
442.999	292.912	80.005	19.993	103.905	20.092	2.842	0.485
443.499	293.179	80.009	19.992	103.907	20.092	2.864	0.487
443.999	293.398	80.001	19.996	103.906	20.093	2.795	0.485
444.499	293.685	80.006	19.992	103.902	20.089	3.082	0.496
444.999	293.919	80.017	19.992	103.902	20.091	2.906	0.514
445.500	294.212	80.004	19.995	103.904	20.090	2.964	0.524
446.000	294.458	80.004	19.992	103.900	20.091	2.941	0.533
446.499	294.743	80.022	19.992	103.900	20.089	3.043	0.535
446.999	294.936	79.988	19.996	103.907	20.089	3.076	0.504
447.499	295.215	80.009	19.993	103.903	20.095	2.669	0.475
447.999	295.491	80.007	19.994	103.900	20.093	2.801	0.513
448.499	295.733	80.009	19.993	103.903	20.092	2.868	0.536
448.999	295.979	80.008	19.993	103.902	20.092	2.835	0.503
449.499	296.230	80.006	19.993	103.900	20.091	2.921	0.493
449.999	296.497	80.005	19.994	103.900	20.094	2.730	0.508
450.499	296.753	80.006	19.992	103.896	20.093	2.805	0.520
450.999	297.030	80.007	19.993	103.892	20.094	2.752	0.528
451.499	297.228	80.002	19.994	103.888	20.091	2.925	0.504
451.999	297.466	80.005	19.994	103.882	20.092	2.876	0.455
452.499	297.752	80.006	19.992	103.879	20.095	2.632	0.480
452.999	298.064	80.006	19.992	103.879	20.095	2.684	0.561
453.499	298.277	80.007	19.993	103.882	20.094	2.748	0.561
453.999	298.512	80.007	19.993	103.886	20.095	2.628	0.487
454.499	298.796	80.007	19.993	103.888	20.095	2.649	0.484
454.999	299.048	80.010	19.993	103.893	20.097	2.538	0.528
455.499	299.295	80.008	19.993	103.899	20.094	2.697	0.517
455.999	299.543	80.007	19.992	103.898	20.095	2.652	0.497
456.499	299.797	80.010	19.992	103.892	20.098	2.472	0.499
456.999	300.047	80.010	19.992	103.889	20.095	2.662	0.503
457.499	300.309	80.007	19.992	103.885	20.095	2.677	0.508
457.999	300.545	80.007	19.993	103.883	20.097	2.551	0.505
458.499	300.823	80.008	19.993	103.884	20.096	2.609	0.506
458.999	301.060	80.009	19.993	103.891	20.097	2.523	0.514
459.499	301.329	80.008	19.993	103.896	20.096	2.575	0.511
459.999	301.585	80.009	19.993	103.901	20.096	2.575	0.516
460.499	301.826	80.009	19.993	103.902	20.094	2.754	0.511
460.999	302.092	80.006	19.994	103.902	20.096	2.622	0.502
461.499	302.381	80.008	19.992	103.902	20.095	2.651	0.531
461.999	302.619	80.007	19.993	103.902	20.101	2.273	0.541
462.500	302.888	80.007	19.992	103.901	20.097	2.525	0.517
463.000	303.123	80.009	19.992	103.898	20.096	2.581	0.505
463.499	303.366	80.008	19.992	103.894	20.098	2.465	0.491
463.999	303.654	80.008	19.992	103.891	20.098	2.470	0.505
464.499	303.866	80.008	19.993	103.891	20.098	2.427	0.515
464.999	304.141	80.007	19.990	103.891	20.098	2.427	0.494
465.499	304.373	80.008	19.994	103.891	20.095	2.630	0.497
465.999	304.628	80.008	19.995	103.897	20.094	2.753	0.497
466.499	304.890	80.005	19.995	103.896	20.097	2.496	0.502
466.999	305.143	80.006	19.995	103.895	20.095	2.646	0.517
467.499	305.419	80.007	19.993	103.893	20.093	2.795	0.522
467.999	305.693	80.005	19.992	103.895	20.094	2.752	0.539
468.499	305.938	80.010	19.994	103.895	20.095	2.665	0.534
468.999	306.166	80.006	19.993	103.899	20.096	2.575	0.496
469.499	306.452	80.007	19.995	103.898	20.096	2.559	0.494
469.999	306.744	80.004	19.994	103.897	20.099	2.403	0.546
470.499	306.997	80.007	19.992	103.893	20.095	2.677	0.561
470.999	307.193	80.006	19.994	103.892	20.098	2.457	0.497
471.499	307.421	80.006	19.994	103.889	20.097	2.540	0.437
471.999	307.699	80.006	19.994	103.893	20.097	2.532	0.465
472.499	307.941	80.007	19.994	103.896	20.098	2.478	0.513
472.999	308.225	80.008	19.994	103.900	20.096	2.600	0.523
473.499	308.480	80.006	19.994	103.896	20.097	2.551	0.532
474.000	308.760	80.005	19.995	103.899	20.095	2.692	0.537
474.500	309.027	80.006	19.994	103.898	20.101	2.264	0.541
474.999	309.257	80.006	19.995	103.896	20.099	2.395	0.522
475.499	309.510	80.006	19.995	103.889	20.097	2.521	0.490
475.999	309.787	80.006	19.994	103.891	20.100	2.326	0.507
476.499	310.013	80.007	19.994	103.888	20.098	2.476	0.516
476.999	310.291	80.007	19.994	103.885	20.097	2.510	0.503
477.499	310.571	80.008	19.994	103.881	20.097	2.532	0.531
477.999	310.827	80.005	19.994	103.884	20.097	2.530	0.548
478.499	311.105	80.009	19.994	103.885	20.099	2.406	0.535
478.999	311.326	80.005	19.995	103.887	20.097	2.532	0.516
479.499	311.603	80.007	19.994	103.888	20.098	2.486	0.498
479.999	311.860	80.008	19.995	103.893	20.098	2.451	0.516
480.499	312.070	80.008	19.994	103.896	20.096	2.592	0.500
480.999	312.343	80.008	19.994	103.898	20.097	2.502	0.475
481.499	312.587	80.007	19.994	103.899	20.099	2.365	0.500
481.999	312.863	80.009	19.994	103.900	20.098	2.464	0.518
482.500	313.144	80.010	19.994	103.900	20.096	2.586	0.539
483.000	313.381	80.012	19.993	103.894	20.100	2.348	0.537
483.499	313.663	80.009	19.993	103.891	20.099	2.385	0.518
483.999	313.875	80.005	19.993	103.892	20.097	2.549	0.507
484.499	314.150	80.008	19.994	103.888	20.097	2.518	0.491
485.000	314.444	80.009	19.993	103.884	20.099	2.389	0.528
485.500	314.672	80.008	19.994	103.890	20.097	2.515	0.545
486.000	314.945	80.008	19.994	103.889	20.098	2.438	0.511
486.500	315.195	80.008	19.993	103.886	20.102	2.188	0.512
486.999	315.455	80.007	19.993	103.889	20.101	2.247	0.517
487.499	315.686	80.009	19.993	103.892	20.101	2.219	0.501
487.999	315.956	80.002	19.995	103.889	20.101	2.245	0.496
488.499	316.225	80.003	19.994	103.883	20.099	2.365	0.520
488.999	316.491	80.009	19.993	103.878	20.099	2.368	0.536
489.499	316.750	80.007	19.994	103.873	20.097	2.537	0.530
489.999	316.976	80.007	19.994	103.869	20.099	2.374	0.505
490.499	317.232	80.005	19.994	103.866	20.098	2.428	0.483
490.999	317.527	80.007	19.992	103.866	20.100	2.316	0.517
491.499	317.762	80.012	19.992	103.868	20.098	2.446	0.541
492.000	318.029	80.007	19.994	103.871	20.099	2.402	0.516
492.500	318.284	80.008	19.994	103.872	20.097	2.532	0.511
492.999	318.530	80.004	19.994	103.874	20.097	2.530	0.512
493.499	318.773	80.007	19.994	103.875	20.096	2.618	0.496
493.999	319.070	80.008	19.993	103.874	20.100	2.348	0.514
494.499	319.308	80.008	19.994	103.870	20.100	2.291	0.537
495.000	319.548	80.005	19.993	103.870	20.098	2.443	0.506
495.500	319.787	80.007	19.994	103.868	20.098	2.434	0.479
495.999	320.041	80.005	19.994	103.870	20.098	2.483	0.486
496.499	320.267	79.994	19.995	103.870	20.097	2.503	0.487
496.999	320.561	80.006	19.994	103.873	20.099	2.415	0.500
497.499	320.808	80.004	19.993	103.879	20.101	2.271	0.531
498.000	321.068	80.007	19.994	103.884	20.096	2.562	0.524
498.500	321.329	80.012	19.993	103.884	20.100	2.303	0.514
499.000	321.547	80.004	19.995	103.885	20.097	2.532	0.500
499.500	321.835	80.005	19.995	103.880	20.099	2.400	0.493
499.999	322.081	80.007	19.993	103.873	20.099	2.382	0.520
500.499	322.309	80.008	19.995	103.869	20.099	2.397	0.504
500.999	322.609	80.006	19.995	103.871	20.095	2.686	0.501
501.499	322.854	80.010	19.994	103.872	20.098	2.443	0.537
501.999	323.102	80.006	19.994	103.879	20.098	2.434	0.519
502.499	323.364	80.006	19.994	103.883	20.098	2.427	0.502
502.999	323.615	80.009	19.993	103.883	20.101	2.280	0.512
503.499	323.841	80.004	19.996	103.879	20.096	2.601	0.495
503.999	324.106	80.009	19.994	103.876	20.095	2.625	0.483
504.499	324.370	80.009	19.995	103.871	20.097	2.520	0.510
504.999	324.602	80.009	19.995	103.867	20.096	2.586	0.513
505.499	324.833	80.006	19.995	103.867	20.096	2.612	0.480
505.999	325.106	80.007	19.995	103.867	20.092	2.849	0.484
506.499	325.336	80.009	19.993	103.869	20.093	2.779	0.504
506.999	325.613	80.009	19.995	103.869	20.097	2.552	0.505
507.499	325.849	80.005	19.994	103.868	20.092	2.890	0.510
508.000	326.127	80.007	19.993	103.868	20.095	2.627	0.514
508.500	326.360	80.008	19.995	103.869	20.095	2.678	0.513
509.000	326.628	80.006	19.994	103.869	20.092	2.839	0.506
509.499	326.862	80.006	19.995	103.869	20.096	2.584	0.501
509.999	327.088	80.008	19.993	103.870	20.096	2.579	0.481
510.499	327.377	80.008	19.994	103.871	20.096	2.582	0.488
510.999	327.628	80.007	19.993	103.872	20.097	2.500	0.527
511.499	327.881	80.007	19.993	103.872	20.091	2.959	0.522
511.999	328.137	80.010	19.994	103.872	20.094	2.708	0.506
512.499	328.356	80.008	19.993	103.873	20.098	2.479	0.492
512.999	328.657	80.009	19.993	103.873	20.096	2.584	0.498
513.499	328.878	80.009	19.992	103.871	20.097	2.488	0.521
513.999	329.110	80.009	19.993	103.871	20.098	2.447	0.487
514.499	329.342	80.010	19.992	103.872	20.097	2.522	0.458
514.999	329.639	80.008	19.993	103.871	20.100	2.346	0.497
515.499	329.886	80.010	19.993	103.871	20.100	2.310	0.537
515.999	330.119	80.007	19.992	103.871	20.099	2.410	0.512
516.499	330.361	80.010	19.993	103.871	20.098	2.430	0.478
516.999	330.620	80.008	19.992	103.870	20.099	2.383	0.488
517.499	330.854	80.007	19.992	103.870	20.102	2.164	0.497
517.999	331.110	80.007	19.992	103.871	20.096	2.560	0.491
518.499	331.400	80.005	19.993	103.871	20.098	2.455	0.517
518.999	331.625	80.007	19.993	103.870	20.099	2.355	0.531
519.499	331.895	80.007	19.992	103.872	20.097	2.539	0.505
519.999	332.134	80.007	19.993	103.872	20.098	2.460	0.502
520.499	332.366	80.001	19.993	103.871	20.097	2.503	0.490
520.999	332.620	80.008	19.993	103.870	20.100	2.299	0.478
521.499	332.844	80.007	19.993	103.870	20.101	2.265	0.482
521.999	333.110	80.008	19.994	103.867	20.097	2.502	0.484
522.499	333.381	80.006	19.994	103.866	20.099	2.381	0.513
522.999	333.629	80.007	19.993	103.867	20.100	2.331	0.528
523.499	333.847	80.007	19.993	103.868	20.100	2.333	0.493
523.999	334.139	80.008	19.993	103.868	20.098	2.460	0.488
524.499	334.362	80.008	19.994	103.868	20.101	2.246	0.513
524.999	334.630	80.006	19.993	103.868	20.099	2.417	0.503
525.499	334.943	80.007	19.995	103.867	20.099	2.368	0.536
525.999	335.147	80.008	19.995	103.866	20.102	2.197	0.549
526.499	335.379	80.007	19.994	103.868	20.102	2.162	0.477
526.999	335.610	80.007	19.995	103.867	20.100	2.297	0.449
527.499	335.863	80.006	19.994	103.867	20.099	2.366	0.474
527.999	336.158	80.007	19.994	103.868	20.102	2.186	0.516
528.499	336.390	80.007	19.994	103.871	20.104	2.044	0.538
528.999	336.651	80.005	19.994	103.870	20.102	2.205	0.510
529.499	336.919	80.007	19.995	103.871	20.104	2.049	0.511
529.999	337.153	80.007	19.993	103.871	20.103	2.119	0.515
530.499	337.413	80.006	19.994	103.871	20.103	2.130	0.499
530.999	337.635	80.007	19.992	103.867	20.102	2.164	0.488
531.499	337.917	80.005	19.995	103.867	20.104	2.045	0.492
531.999	338.161	80.007	19.993	103.867	20.104	2.044	0.515
532.500	338.437	80.005	19.995	103.867	20.105	2.006	0.523
533.000	338.700	80.007	19.993	103.867	20.102	2.156	0.530
533.500	338.926	80.006	19.994	103.867	20.104	2.030	0.514
534.000	339.183	80.007	19.994	103.867	20.102	2.194	0.486
534.500	339.419	80.007	19.995	103.867	20.102	2.194	0.488
535.000	339.683	80.008	19.995	103.867	20.102	2.192	0.496
535.499	339.942	80.006	19.994	103.867	20.100	2.316	0.512
535.999	340.167	80.006	19.993	103.867	20.102	2.173	0.504
536.499	340.423	80.006	19.994	103.866	20.105	2.001	0.482
536.999	340.663	80.005	19.993	103.866	20.101	2.222	0.488
537.499	340.917	80.007	19.993	103.866	20.104	2.079	0.495
537.999	341.142	80.007	19.994	103.866	20.100	2.312	0.487
538.500	341.416	80.006	19.994	103.867	20.100	2.314	0.489
539.000	341.678	80.007	19.993	103.869	20.103	2.134	0.518
539.499	341.921	80.006	19.994	103.868	20.103	2.092	0.520
539.999	342.161	80.007	19.993	103.868	20.104	2.025	0.494
540.499	342.394	80.006	19.994	103.868	20.102	2.158	0.478
540.999	342.669	80.007	19.994	103.867	20.105	1.954	0.491
541.499	342.888	80.007	19.994	103.865	20.104	2.074	0.501
541.999	343.148	80.006	19.994	103.865	20.098	2.426	0.487
542.499	343.401	80.007	19.993	103.865	20.097	2.528	0.496
542.999	343.619	80.009	19.994	103.865	20.100	2.295	0.491
543.499	343.909	80.007	19.994	103.865	20.102	2.181	0.489
543.999	344.167	80.009	19.993	103.865	20.101	2.260	0.528
544.499	344.392	80.007	19.993	103.866	20.099	2.415	0.516
544.999	344.645	80.008	19.994	103.867	20.100	2.329	0.480
545.499	344.883	80.008	19.994	103.868	20.101	2.248	0.485
545.999	345.114	80.006	19.993	103.870	20.100	2.331	0.480
546.499	345.388	80.004	19.994	103.871	20.100	2.303	0.487
546.999	345.656	80.009	19.993	103.870	20.099	2.380	0.523
547.499	345.891	80.007	19.994	103.869	20.102	2.196	0.522
547.999	346.124	80.007	19.993	103.868	20.099	2.370	0.486
548.499	346.413	80.006	19.993	103.867	20.101	2.280	0.495
548.999	346.590	80.007	19.993	103.867	20.101	2.235	0.494
549.500	346.870	80.007	19.994	103.867	20.099	2.408	0.462
550.000	347.094	80.008	19.993	103.867	20.101	2.229	0.481
550.500	347.351	80.007	19.993	103.867	20.103	2.143	0.493
550.999	347.608	80.007	19.993	103.866	20.100	2.336	0.497
551.499	347.863	80.007	19.994	103.866	20.100	2.312	0.513
551.999	348.090	80.007	19.993	103.867	20.100	2.308	0.497
552.499	348.356	80.007	19.993	103.867	20.100	2.301	0.487
552.999	348.608	80.006	19.993	103.868	20.101	2.248	0.505
553.499	348.832	80.007	19.993	103.867	20.099	2.366	0.497
553.999	349.089	80.006	19.992	103.868	20.101	2.282	0.479
554.499	349.303	80.005	19.993	103.870	20.102	2.198	0.476
555.000	349.573	80.008	19.993	103.870	20.101	2.282	0.477
555.500	349.840	80.006	19.993	103.871	20.101	2.237	0.511
555.999	350.089	80.007	19.993	103.873	20.102	2.188	0.526
556.499	350.340	80.007	19.993	103.873	20.100	2.319	0.507
556.999	350.558	80.007	19.992	103.871	20.101	2.274	0.484
557.499	350.813	80.009	19.993	103.871	20.101	2.269	0.471
557.999	351.039	80.007	19.992	103.872	20.100	2.308	0.477
558.499	351.315	80.007	19.993	103.870	20.103	2.087	0.491
558.999	351.564	80.007	19.992	103.870	20.102	2.183	0.514
559.499	351.794	80.008	19.993	103.869	20.102	2.171	0.502
559.999	352.026	80.007	19.993	103.866	20.103	2.141	0.471
560.499	352.294	80.006	19.993	103.863	20.103	2.115	0.481
560.999	352.536	80.007	19.993	103.863	20.101	2.252	0.505
561.499	352.805	80.008	19.993	103.861	20.103	2.098	0.511
561.999	353.040	80.006	19.993	103.858	20.102	2.162	0.507
562.499	353.313	80.007	19.994	103.861	20.101	2.231	0.506
562.999	353.541	80.008	19.993	103.863	20.102	2.167	0.505
563.499	353.839	80.007	19.993	103.862	20.103	2.143	0.514
563.999	354.044	80.007	19.993	103.864	20.101	2.278	0.514
564.499	354.335	80.009	19.994	103.866	20.102	2.201	0.499
564.999	354.571	80.009	19.993	103.867	20.103	2.136	0.512
565.499	354.804	80.008	19.994	103.867	20.102	2.184	0.498
565.999	355.035	80.008	19.994	103.867	20.105	2.002	0.467
566.499	355.289	80.007	19.994	103.868	20.104	2.059	0.475
566.999	355.559	80.009	19.994	103.867	20.100	2.297	0.504
567.499	355.754	80.008	19.993	103.865	20.104	2.027	0.495
567.999	356.017	80.008	19.993	103.865	20.102	2.201	0.462
568.499	356.296	80.008	19.993	103.865	20.101	2.243	0.500
568.999	356.508	80.007	19.993	103.865	20.103	2.100	0.516
569.499	356.768	80.009	19.995	103.867	20.102	2.156	0.481
569.999	357.028	80.008	19.995	103.868	20.102	2.183	0.497
570.499	357.302	80.007	19.994	103.868	20.104	2.070	0.527
570.999	357.512	80.006	19.995	103.868	20.103	2.136	0.509
571.499	357.769	80.008	19.993	103.867	20.101	2.218	0.476
571.999	358.043	80.007	19.995	103.868	20.103	2.141	0.500
572.499	358.301	80.008	19.993	103.868	20.103	2.113	0.532
572.999	358.558	80.007	19.993	103.867	20.103	2.124	0.523
573.500	358.768	80.007	19.994	103.866	20.103	2.104	0.491
574.000	359.043	80.007	19.994	103.864	20.105	1.965	0.475
574.500	359.277	80.008	19.994	103.862	20.107	1.854	0.497
575.000	359.532	80.007	19.993	103.862	20.102	2.190	0.499
575.499	359.758	80.007	19.995	103.863	20.106	1.910	0.486
575.999	360.042	80.007	19.994	103.865	20.105	1.969	0.496
576.499	360.264	80.006	19.993	103.867	20.106	1.916	0.508
576.999	360.484	80.007	19.994	103.868	20.107	1.843	0.474
577.499	360.787	80.007	19.993	103.868	20.103	2.102	0.483
577.999	361.023	80.008	19.993	103.868	20.106	1.903	0.531
578.499	361.280	80.008	19.994	103.868	20.103	2.096	0.516
578.999	361.542	80.006	19.993	103.869	20.102	2.215	0.506
579.499	361.770	80.010	19.993	103.871	20.102	2.183	0.505
579.999	362.052	80.008	19.994	103.873	20.102	2.200	0.500
580.499	362.290	80.006	19.993	103.873	20.108	1.769	0.515
580.999	362.509	80.006	19.994	103.870	20.104	2.034	0.488
581.499	362.762	80.007	19.993	103.868	20.102	2.179	0.464
582.000	363.040	80.007	19.994	103.867	20.101	2.219	0.501
582.500	363.277	80.006	19.993	103.865	20.103	2.099	0.523
582.999	363.506	80.007	19.993	103.866	20.101	2.281	0.491
583.499	363.762	80.007	19.994	103.869	20.104	2.040	0.476
583.999	364.035	80.007	19.993	103.869	20.101	2.269	0.506
584.499	364.269	80.007	19.994	103.868	20.102	2.166	0.518
585.000	364.560	80.006	19.991	103.867	20.102	2.211	0.516
585.500	364.808	80.009	19.995	103.866	20.105	1.982	0.532
585.999	365.067	80.008	19.995	103.866	20.100	2.299	0.523
586.499	365.303	80.009	19.995	103.866	20.102	2.214	0.500
586.999	365.563	80.009	19.996	103.868	20.103	2.100	0.495
587.499	365.813	80.008	19.994	103.869	20.101	2.244	0.503
587.999	366.067	80.006	19.994	103.869	20.101	2.265	0.507
588.499	366.317	80.008	19.995	103.867	20.103	2.115	0.504
588.999	366.548	80.009	19.993	103.862	20.103	2.136	0.493
589.499	366.831	80.009	19.994	103.840	20.100	2.329	0.497
589.999	367.068	80.010	19.994	103.821	20.101	2.229	0.516
590.499	367.353	80.011	19.994	103.815	20.100	2.340	0.521
591.000	367.539	80.009	19.993	103.817	20.104	2.055	0.497
591.500	367.815	80.008	19.995	103.821	20.103	2.147	0.466
591.999	368.097	80.011	19.993	103.844	20.100	2.291	0.510
592.499	368.335	80.007	19.994	103.887	20.102	2.166	0.539
592.999	368.584	80.011	19.993	103.902	20.104	2.029	0.503
593.499	368.831	80.009	19.995	103.902	20.101	2.267	0.491
593.999	369.065	80.009	19.994	103.902	20.102	2.186	0.489
594.500	369.364	80.009	19.994	103.898	20.102	2.216	0.507
595.000	369.629	80.009	19.993	103.871	20.101	2.246	0.549
595.499	369.825	80.007	19.994	103.862	20.100	2.323	0.512
595.999	370.110	80.009	19.994	103.862	20.102	2.184	0.471
596.499	370.357	80.009	19.995	103.862	20.098	2.421	0.507
596.999	370.620	80.007	19.993	103.863	20.104	2.068	0.521
597.499	370.827	80.008	19.994	103.863	20.101	2.254	0.490
597.999	371.096	80.009	19.995	103.864	20.102	2.196	0.473
598.499	371.363	80.008	19.994	103.864	20.099	2.417	0.506
598.999	371.633	80.008	19.994	103.864	20.104	2.025	0.536
599.500	371.866	80.008	19.995	103.863	20.103	2.087	0.520
600.000	372.132	80.006	19.995	103.864	20.103	2.126	0.501
600.499	372.367	80.008	19.994	103.864	20.101	2.222	0.500
600.999	372.617	80.007	19.996	103.864	20.103	2.107	0.492
601.499	372.894	80.006	19.994	103.864	20.101	2.284	0.506
601.999	373.125	80.005	19.995	103.864	20.102	2.211	0.518
602.499	373.427	80.005	19.995	103.864	20.105	2.000	0.521
602.999	373.659	80.007	19.994	103.863	20.106	1.929	0.534
603.499	373.935	80.007	19.996	103.864	20.101	2.243	0.521
603.999	374.148	80.007	19.995	103.865	20.104	2.036	0.498
604.499	374.392	80.008	19.994	103.865	20.103	2.141	0.473
604.999	374.708	80.005	19.995	103.866	20.101	2.284	0.508
605.499	374.918	80.005	19.994	103.866	20.101	2.220	0.543
605.999	375.173	80.006	19.994	103.865	20.101	2.256	0.496
606.499	375.430	80.006	19.994	103.865	20.102	2.214	0.489
606.999	375.704	80.005	19.994	103.864	20.103	2.132	0.522
607.499	375.954	80.009	19.994	103.864	20.100	2.323	0.528
607.999	376.209	80.006	19.993	103.865	20.102	2.210	0.514
608.500	376.447	80.007	19.995	103.865	20.103	2.098	0.499
609.000	376.683	80.006	19.994	103.862	20.101	2.265	0.483
609.499	376.965	80.007	19.995	103.861	20.099	2.372	0.496
609.999	377.209	80.007	19.995	103.862	20.102	2.196	0.522
610.499	377.514	80.004	19.995	103.862	20.103	2.126	0.537
610.999	377.745	80.008	19.993	103.862	20.099	2.355	0.542
611.499	377.966	80.006	19.995	103.865	20.101	2.274	0.494
611.999	378.245	80.006	19.994	103.865	20.098	2.434	0.476
612.499	378.515	80.006	19.994	103.866	20.103	2.137	0.524
612.999	378.803	80.007	19.994	103.866	20.101	2.276	0.553
613.499	379.066	80.007	19.993	103.866	20.101	2.226	0.554
613.999	379.303	80.004	19.993	103.866	20.100	2.348	0.525
614.499	379.534	80.006	19.994	103.867	20.100	2.295	0.484
614.999	379.833	80.004	19.994	103.866	20.099	2.381	0.499
615.499	380.061	80.006	19.993	103.865	20.098	2.464	0.528
615.999	380.327	80.007	19.993	103.864	20.101	2.258	0.510
616.499	380.578	80.006	19.995	103.864	20.099	2.419	0.506
616.999	380.838	80.005	19.994	103.863	20.101	2.267	0.514
617.499	381.102	80.007	19.994	103.859	20.100	2.333	0.518
617.999	381.339	80.007	19.995	103.859	20.104	2.064	0.512
618.499	381.613	80.006	19.995	103.860	20.102	2.184	0.506
618.999	381.850	80.008	19.993	103.860	20.100	2.297	0.511
619.499	382.123	80.007	19.995	103.859	20.100	2.301	0.511
619.999	382.334	80.006	19.996	103.863	20.101	2.228	0.497
620.499	382.620	80.006	19.994	103.865	20.101	2.243	0.490
620.999	382.870	80.006	19.994	103.866	20.104	2.030	0.516
621.499	383.142	80.007	19.993	103.866	20.102	2.166	0.529
621.999	383.371	80.006	19.993	103.867	20.101	2.259	0.512
622.499	383.622	80.008	19.994	103.867	20.102	2.166	0.491
622.999	383.909	80.006	19.994	103.867	20.104	2.062	0.509
623.499	384.141	80.005	19.993	103.865	20.104	2.019	0.528
623.999	384.424	80.004	19.995	103.862	20.102	2.207	0.517
624.499	384.690	80.007	19.994	103.862	20.100	2.289	0.532
624.999	384.919	80.007	19.992	103.863	20.103	2.105	0.522
625.499	385.173	80.006	19.994	103.864	20.099	2.385	0.489
625.999	385.430	80.008	19.993	103.866	20.101	2.224	0.497
626.499	385.704	80.008	19.994	103.869	20.101	2.274	0.521
626.999	385.918	80.006	19.994	103.870	20.099	2.364	0.509
627.499	386.197	80.007	19.994	103.869	20.103	2.134	0.490
627.999	386.435	80.007	19.994	103.870	20.102	2.192	0.505
628.499	386.747	80.006	19.994	103.870	20.102	2.207	0.534
628.999	386.954	80.007	19.993	103.869	20.101	2.222	0.535
629.499	387.181	80.006	19.993	103.869	20.104	2.049	0.476
629.999	387.457	80.007	19.993	103.869	20.101	2.263	0.468
630.499	387.676	80.005	19.995	103.869	20.104	2.034	0.499
630.999	387.951	80.005	19.994	103.866	20.104	2.074	0.495
631.499	388.242	80.006	19.994	103.866	20.103	2.109	0.530
631.999	388.541	80.005	19.994	103.866	20.103	2.100	0.578
632.499	388.743	80.006	19.993	103.865	20.104	2.077	0.545
632.999	388.977	80.006	19.993	103.865	20.103	2.134	0.469
633.499	389.236	80.004	19.993	103.867	20.102	2.186	0.465
633.999	389.481	80.005	19.994	103.868	20.105	1.967	0.499
634.499	389.741	80.004	19.994	103.864	20.102	2.192	0.505
634.999	390.029	80.005	19.994	103.863	20.099	2.378	0.526
635.499	390.269	80.005	19.994	103.863	20.103	2.094	0.538
635.999	390.523	80.006	19.994	103.863	20.103	2.134	0.511
636.499	390.774	80.005	19.993	103.862	20.099	2.353	0.499
636.999	391.025	80.006	19.993	103.864	20.103	2.132	0.503
637.499	391.296	80.006	19.993	103.866	20.103	2.117	0.512
637.999	391.507	80.005	19.993	103.862	20.101	2.224	0.502
638.499	391.808	80.005	19.995	103.861	20.098	2.456	0.497
639.000	392.057	80.007	19.994	103.861	20.099	2.417	0.531
639.500	392.276	80.007	19.993	103.862	20.102	2.194	0.509
639.999	392.550	80.006	19.993	103.860	20.100	2.318	0.481
640.499	392.834	80.006	19.993	103.862	20.100	2.302	0.525
640.999	393.057	80.007	19.993	103.861	20.103	2.083	0.533
641.500	393.353	80.006	19.993	103.862	20.103	2.117	0.513
642.000	393.597	80.007	19.992	103.862	20.101	2.270	0.529
642.499	393.858	80.009	19.993	103.863	20.100	2.330	0.522
642.999	394.124	80.008	19.993	103.865	20.101	2.220	0.516
643.499	394.368	80.008	19.992	103.868	20.103	2.143	0.519
643.999	394.626	80.007	19.993	103.866	20.098	2.430	0.506
644.499	394.874	80.008	19.992	103.862	20.102	2.195	0.504
644.999	395.109	80.007	19.991	103.862	20.102	2.197	0.495
645.499	395.407	80.007	19.994	103.863	20.101	2.274	0.508
645.999	395.694	80.009	19.994	103.862	20.102	2.193	0.559
646.499	395.919	80.008	19.994	103.863	20.104	2.067	0.549
646.999	396.160	80.009	19.994	103.866	20.099	2.396	0.489
647.499	396.426	80.009	19.994	103.866	20.101	2.279	0.486
647.999	396.708	80.008	19.994	103.866	20.099	2.415	0.527
648.500	396.940	80.009	19.995	103.866	20.101	2.249	0.531
649.000	397.177	80.009	19.993	103.867	20.099	2.377	0.492
649.499	397.487	80.009	19.992	103.867	20.099	2.398	0.508
649.999	397.658	80.007	19.994	103.866	20.102	2.173	0.513
650.499	397.946	80.009	19.994	103.866	20.100	2.336	0.470
650.999	398.213	80.008	19.995	103.864	20.100	2.334	0.507
651.499	398.469	80.008	19.992	103.861	20.101	2.250	0.539
651.999	398.733	80.009	19.994	103.858	20.101	2.265	0.522
652.499	398.936	80.007	19.994	103.858	20.102	2.210	0.493
652.999	399.217	80.009	19.994	103.853	20.102	2.186	0.475
653.499	399.439	80.009	19.993	103.853	20.104	2.019	0.493
653.999	399.707	80.007	19.994	103.855	20.104	2.077	0.497
654.499	399.976	80.008	19.995	103.856	20.100	2.313	0.514
654.999	400.198	80.009	19.993	103.858	20.101	2.246	0.514
655.499	400.454	80.009	19.993	103.858	20.099	2.364	0.484
655.999	400.714	80.008	19.994	103.856	20.103	2.146	0.497
656.499	400.976	80.008	19.995	103.851	20.102	2.188	0.519
656.999	401.213	80.008	19.994	103.845	20.103	2.148	0.510
657.499	401.480	80.006	19.995	103.837	20.104	2.026	0.502
657.999	401.722	80.007	19.995	103.834	20.103	2.113	0.507
658.499	401.993	80.007	19.994	103.835	20.104	2.066	0.511
658.999	402.213	80.006	19.994	103.838	20.102	2.214	0.501
659.499	402.474	80.007	19.994	103.841	20.103	2.096	0.486
659.999	402.769	80.007	19.994	103.846	20.101	2.244	0.519
660.499	402.983	80.008	19.994	103.849	20.102	2.195	0.532
660.999	403.260	80.007	19.995	103.848	20.101	2.240	0.500
661.499	403.453	80.008	19.994	103.850	20.101	2.218	0.481
661.999	403.684	80.009	19.995	103.852	20.098	2.433	0.447
662.499	403.968	80.007	19.995	103.851	20.104	2.017	0.469
662.999	404.231	80.007	19.994	103.853	20.102	2.214	0.531
663.499	404.475	80.008	19.996	103.851	20.103	2.132	0.527
663.999	404.693	80.006	19.993	103.849	20.102	2.188	0.485
664.499	404.954	80.008	19.994	103.848	20.101	2.235	0.471
664.999	405.181	80.008	19.993	103.845	20.103	2.084	0.483
665.499	405.451	80.008	19.995	103.842	20.102	2.204	0.492
665.999	405.713	80.009	19.995	103.842	20.104	2.062	0.515
666.499	405.978	80.007	19.994	103.841	20.107	1.848	0.529
666.999	406.210	80.009	19.995	103.837	20.107	1.865	0.512
667.499	406.450	80.006	19.995	103.839	20.100	2.332	0.484
667.999	406.680	80.010	19.994	103.844	20.104	2.051	0.471
668.499	406.929	80.008	19.994	103.844	20.103	2.099	0.475
668.999	407.160	80.007	19.993	103.844	20.104	2.056	0.480
669.499	407.425	80.008	19.994	103.843	20.102	2.150	0.488
669.999	407.654	80.007	19.994	103.845	20.104	2.052	0.495
670.499	407.911	80.010	19.993	103.839	20.101	2.221	0.490
670.999	408.146	80.007	19.995	103.836	20.105	2.005	0.489
671.499	408.385	80.010	19.994	103.837	20.105	2.000	0.483
671.999	408.629	80.010	19.994	103.837	20.104	2.047	0.478
672.499	408.860	80.008	19.994	103.839	20.103	2.129	0.479
672.999	409.116	80.009	19.994	103.845	20.104	2.067	0.481
673.499	409.388	80.009	19.993	103.851	20.106	1.900	0.508
673.999	409.597	80.012	19.994	103.854	20.103	2.118	0.505
674.499	409.832	80.010	19.993	103.858	20.107	1.876	0.462
675.000	410.073	80.009	19.994	103.852	20.106	1.936	0.460
675.500	410.318	80.009	19.994	103.845	20.106	1.923	0.481
675.999	410.571	80.009	19.994	103.839	20.108	1.805	0.492
676.499	410.817	80.008	19.995	103.833	20.104	2.035	0.499
676.999	411.012	80.009	19.993	103.833	20.104	2.077	0.470
677.499	411.257	80.009	19.995	103.837	20.104	2.028	0.440
677.999	411.533	80.008	19.994	103.838	20.103	2.097	0.481
678.500	411.756	80.007	19.993	103.838	20.105	1.964	0.510
679.000	411.983	80.007	19.994	103.837	20.104	2.019	0.475
679.499	412.222	80.009	19.995	103.833	20.106	1.936	0.458
679.999	412.468	80.007	19.995	103.829	20.102	2.159	0.475
680.499	412.703	80.009	19.994	103.828	20.104	2.069	0.483
680.999	412.953	80.006	19.993	103.828	20.107	1.872	0.483
681.499	413.192	80.007	19.995	103.830	20.103	2.118	0.487
681.999	413.409	80.007	19.994	103.833	20.103	2.148	0.472
682.499	413.647	80.005	19.994	103.835	20.106	1.932	0.455
682.999	413.872	80.007	19.994	103.836	20.103	2.081	0.459
683.499	414.109	80.005	19.995	103.836	20.103	2.114	0.462
683.999	414.336	80.006	19.995	103.835	20.103	2.133	0.463
684.499	414.595	80.006	19.994	103.834	20.104	2.058	0.475
684.999	414.817	80.004	19.995	103.832	20.102	2.199	0.483
685.499	415.050	80.005	19.994	103.832	20.103	2.097	0.468
685.999	415.270	80.005	19.994	103.834	20.106	1.930	0.454
686.499	415.492	80.004	19.995	103.834	20.102	2.191	0.448
686.999	415.735	80.005	19.995	103.833	20.105	1.996	0.454
687.499	415.999	80.005	19.994	103.832	20.102	2.167	0.486
687.999	416.185	80.005	19.993	103.833	20.103	2.120	0.478
688.499	416.428	80.005	19.994	103.831	20.104	2.015	0.439
688.999	416.635	80.006	19.994	103.831	20.104	2.035	0.439
689.499	416.887	80.003	19.995	103.830	20.104	2.054	0.455
689.999	417.134	80.005	19.996	103.830	20.104	2.052	0.479
690.499	417.376	80.006	19.996	103.830	20.104	2.075	0.494
690.999	417.608	80.006	19.995	103.830	20.104	2.026	0.481
691.499	417.845	80.005	19.996	103.830	20.102	2.202	0.472
691.999	418.045	80.006	19.995	103.831	20.103	2.090	0.454
692.499	418.317	80.004	19.996	103.833	20.102	2.157	0.455
692.999	418.506	80.005	19.996	103.834	20.104	2.050	0.466
693.499	418.732	80.005	19.996	103.835	20.107	1.814	0.438
694.000	418.958	80.004	19.995	103.837	20.103	2.099	0.434
694.500	419.210	80.005	19.994	103.837	20.103	2.092	0.465
694.999	419.436	80.006	19.995	103.834	20.103	2.088	0.478
695.499	419.648	80.005	19.995	103.835	20.104	2.060	0.459
695.999	419.878	80.006	19.995	103.836	20.100	2.295	0.440
696.499	420.126	80.005	19.995	103.834	20.104	2.047	0.459
696.999	420.361	80.006	19.995	103.835	20.107	1.857	0.480
697.499	420.577	80.005	19.995	103.836	20.101	2.225	0.467
697.999	420.809	80.005	19.994	103.835	20.101	2.268	0.450
698.499	421.044	80.006	19.995	103.836	20.104	2.073	0.458
698.999	421.270	80.006	19.995	103.836	20.102	2.216	0.464
699.499	421.522	80.007	19.994	103.834	20.101	2.223	0.470
699.999	421.763	80.007	19.996	103.834	20.103	2.141	0.486
700.499	421.954	80.005	19.995	103.833	20.101	2.278	0.463
700.999	422.199	80.005	19.993	103.832	20.101	2.274	0.434
701.499	422.425	80.005	19.994	103.834	20.100	2.315	0.453
701.999	422.643	80.008	19.993	103.834	20.102	2.173	0.458
702.499	422.874	80.005	19.994	103.833	20.105	1.972	0.447
702.999	423.092	80.007	19.993	103.833	20.102	2.163	0.449
703.499	423.326	80.007	19.993	103.833	20.102	2.161	0.450
703.999	423.609	80.006	19.993	103.833	20.103	2.098	0.484
704.499	423.802	80.006	19.994	103.833	20.098	2.484	0.496
704.999	424.017	80.003	19.993	103.837	20.100	2.298	0.442
705.499	424.244	80.006	19.993	103.839	20.099	2.418	0.425
705.999	424.484	80.006	19.995	103.842	20.099	2.396	0.454
706.500	424.715	80.006	19.995	103.846	20.099	2.383	0.469
707.000	424.938	80.006	19.994	103.851	20.103	2.135	0.463
707.499	425.160	80.007	19.994	103.849	20.100	2.312	0.449
707.999	425.416	80.007	19.995	103.847	20.101	2.266	0.461
708.499	425.638	80.005	19.994	103.843	20.100	2.304	0.478
708.999	425.847	80.005	19.994	103.838	20.103	2.120	0.454
709.499	426.114	80.007	19.992	103.834	20.102	2.163	0.453
709.999	426.344	80.006	19.993	103.835	20.100	2.321	0.486
710.499	426.529	80.006	19.993	103.836	20.099	2.360	0.456
710.999	426.814	80.006	19.995	103.837	20.102	2.167	0.443
711.499	427.008	80.007	19.995	103.838	20.101	2.251	0.475
711.999	427.242	80.006	19.994	103.837	20.099	2.383	0.454
712.499	427.464	80.006	19.994	103.836	20.101	2.253	0.442
712.999	427.725	80.006	19.993	103.841	20.100	2.310	0.469
713.499	427.969	80.006	19.993	103.845	20.103	2.143	0.494
713.999	428.200	80.007	19.994	103.844	20.101	2.227	0.489
714.499	428.441	80.007	19.993	103.845	20.104	2.045	0.474
714.999	428.671	80.006	19.994	103.848	20.102	2.210	0.472
715.499	428.916	80.007	19.994	103.843	20.104	2.066	0.473
715.999	429.147	80.007	19.995	103.841	20.103	2.146	0.475
716.499	429.364	80.006	19.995	103.842	20.103	2.118	0.462
716.999	429.607	80.007	19.993	103.847	20.103	2.107	0.454
717.499	429.858	80.007	19.995	103.845	20.103	2.092	0.477
717.999	430.092	80.007	19.993	103.844	20.103	2.133	0.489
718.499	430.319	80.005	19.995	103.845	20.101	2.242	0.473
718.999	430.524	80.007	19.994	103.846	20.101	2.261	0.446
719.499	430.751	80.008	19.992	103.841	20.103	2.137	0.432
719.999	430.998	80.006	19.994	103.839	20.102	2.171	0.453
720.499	431.252	80.007	19.993	103.839	20.106	1.906	0.487
720.999	431.474	80.006	19.994	103.835	20.105	1.979	0.488
721.499	431.711	80.008	19.993	103.834	20.104	2.062	0.468
721.999	431.960	80.007	19.995	103.835	20.106	1.900	0.473
722.499	432.207	80.007	19.995	103.837	20.106	1.882	0.491
722.999	432.444	80.008	19.994	103.842	20.104	2.022	0.490
723.499	432.682	80.005	19.994	103.844	20.105	2.004	0.479
723.999	432.914	80.006	19.995	103.842	20.105	1.949	0.473
724.499	433.157	80.006	19.995	103.841	20.101	2.234	0.473
725.000	433.403	80.007	19.994	103.841	20.102	2.150	0.482
725.500	433.647	80.009	19.994	103.836	20.106	1.897	0.489
725.999	433.898	80.006	19.995	103.833	20.103	2.098	0.493
726.499	434.132	80.008	19.994	103.835	20.103	2.092	0.491
726.999	434.360	80.006	19.994	103.834	20.102	2.195	0.474
727.499	434.615	80.009	19.994	103.832	20.105	1.983	0.472
727.999	434.908	80.007	19.993	103.834	20.104	2.036	0.516
728.499	435.100	80.008	19.996	103.838	20.101	2.225	0.517
728.999	435.369	80.009	19.994	103.838	20.104	2.024	0.473
729.499	435.589	80.008	19.995	103.840	20.105	1.979	0.475
729.999	435.842	80.008	19.995	103.842	20.101	2.240	0.481
730.499	436.047	80.009	19.994	103.842	20.103	2.144	0.465
730.999	436.311	80.009	19.995	103.837	20.100	2.291	0.463
731.499	436.563	80.009	19.992	103.836	20.105	1.949	0.493
731.999	436.788	80.007	19.995	103.835	20.102	2.197	0.497
732.500	437.006	80.009	19.993	103.834	20.103	2.148	0.460
733.000	437.276	80.009	19.994	103.832	20.106	1.932	0.466
733.499	437.512	80.009	19.995	103.834	20.102	2.189	0.497
733.999	437.733	80.008	19.995	103.837	20.102	2.208	0.481
734.499	438.005	80.008	19.994	103.837	20.102	2.180	0.475
734.999	438.245	80.006	19.994	103.836	20.102	2.212	0.503
735.499	438.492	80.010	19.995	103.841	20.104	2.077	0.499
735.999	438.734	80.008	19.995	103.843	20.101	2.252	0.488
736.499	438.983	80.007	19.995	103.840	20.099	2.393	0.490
736.999	439.222	80.008	19.994	103.841	20.102	2.169	0.490
737.499	439.482	80.008	19.994	103.843	20.102	2.199	0.493
737.999	439.694	80.009	19.994	103.838	20.103	2.141	0.486
738.499	439.985	80.006	19.995	103.837	20.104	2.073	0.488
738.999	440.202	80.007	19.994	103.841	20.105	1.992	0.505
739.500	440.429	80.008	19.993	103.843	20.102	2.171	0.476
740.000	440.682	80.007	19.995	103.843	20.101	2.268	0.462
740.499	440.945	80.009	19.994	103.845	20.103	2.088	0.498
740.999	441.145	80.007	19.994	103.844	20.101	2.244	0.489
741.499	441.433	80.008	19.994	103.843	20.103	2.090	0.475
741.999	441.643	80.008	19.994	103.839	20.103	2.090	0.493
742.499	441.885	80.007	19.994	103.836	20.103	2.092	0.475
742.999	442.139	80.008	19.994	103.835	20.103	2.099	0.474
743.499	442.405	80.008	19.993	103.834	20.105	1.963	0.508
743.999	442.652	80.009	19.994	103.831	20.103	2.135	0.516
744.499	442.923	80.008	19.993	103.831	20.104	2.069	0.516
744.999	443.158	80.006	19.995	103.832	20.104	2.023	0.512
745.499	443.399	80.008	19.993	103.836	20.103	2.109	0.491
745.999	443.612	80.007	19.994	103.842	20.103	2.148	0.465
746.499	443.881	80.008	19.994	103.847	20.101	2.276	0.468
746.999	444.140	80.008	19.993	103.855	20.104	2.064	0.505
747.499	444.373	80.008	19.993	103.860	20.103	2.092	0.511
747.999	444.609	80.007	19.994	103.861	20.104	2.019	0.481
748.499	444.890	80.006	19.993	103.855	20.105	1.975	0.493
748.999	445.115	80.007	19.995	103.851	20.107	1.812	0.511
749.499	445.344	80.007	19.994	103.845	20.105	1.989	0.480
749.999	445.643	80.006	19.992	103.842	20.107	1.844	0.491
750.499	445.855	80.008	19.993	103.845	20.105	2.004	0.519
750.999	446.115	80.009	19.994	103.850	20.104	2.013	0.491
751.499	446.361	80.008	19.994	103.857	20.104	2.077	0.490
751.999	446.590	80.007	19.995	103.858	20.104	2.015	0.491
752.499	446.874	80.009	19.994	103.855	20.105	1.955	0.494
752.999	447.123	80.010	19.994	103.852	20.105	1.964	0.523
753.499	447.371	80.008	19.994	103.848	20.106	1.944	0.515
753.999	447.645	80.008	19.994	103.846	20.108	1.790	0.509
754.499	447.874	80.007	19.993	103.849	20.105	1.983	0.512
754.999	448.147	80.009	19.994	103.849	20.106	1.942	0.502
755.500	448.352	80.009	19.993	103.845	20.106	1.942	0.491
756.000	448.636	80.009	19.994	103.843	20.107	1.873	0.483
756.499	448.914	80.009	19.994	103.839	20.106	1.938	0.525
756.999	449.167	80.008	19.994	103.834	20.105	1.993	0.547
757.499	449.424	80.010	19.994	103.835	20.104	2.019	0.521
757.999	449.635	80.008	19.993	103.836	20.105	1.970	0.489
758.499	449.924	80.007	19.994	103.834	20.106	1.908	0.483
758.999	450.175	80.009	19.993	103.833	20.104	2.013	0.520
759.499	450.428	80.008	19.994	103.833	20.105	1.983	0.522
759.999	450.647	80.006	19.992	103.831	20.105	2.000	0.488
760.499	450.949	80.009	19.993	103.833	20.103	2.103	0.497
760.999	451.202	80.007	19.993	103.839	20.104	2.066	0.538
761.499	451.435	80.007	19.993	103.843	20.104	2.069	0.520
761.999	451.673	80.006	19.996	103.844	20.105	2.000	0.479
762.499	451.957	80.005	19.994	103.845	20.106	1.906	0.497
762.999	452.227	80.008	19.994	103.847	20.104	2.079	0.538
763.499	452.449	80.006	19.994	103.844	20.105	1.964	0.523
763.999	452.725	80.005	19.994	103.843	20.104	2.013	0.495
764.499	452.982	80.004	19.995	103.845	20.106	1.880	0.515
765.000	453.234	80.004	19.993	103.847	20.107	1.848	0.521
765.500	453.527	80.006	19.994	103.847	20.104	2.039	0.527
765.999	453.797	80.007	19.993	103.850	20.106	1.908	0.554
766.499	454.042	80.004	19.994	103.854	20.104	2.015	0.539
766.999	454.268	80.006	19.995	103.853	20.102	2.182	0.493
767.499	454.571	80.004	19.994	103.851	20.105	1.977	0.500
767.999	454.813	80.006	19.995	103.850	20.104	2.035	0.537
768.499	455.062	80.006	19.995	103.848	20.105	1.979	0.518
768.999	455.349	80.006	19.994	103.843	20.104	2.026	0.514
769.499	455.598	80.005	19.994	103.842	20.105	2.011	0.536
769.999	455.868	80.006	19.992	103.846	20.105	1.983	0.527
770.499	456.125	80.005	19.994	103.850	20.106	1.934	0.523
770.999	456.368	80.004	19.995	103.849	20.104	2.037	0.514
771.499	456.637	80.005	19.994	103.847	20.105	1.973	0.507
771.999	456.886	80.006	19.994	103.847	20.105	2.009	0.515
772.499	457.128	80.007	19.993	103.844	20.103	2.105	0.505
772.999	457.384	80.007	19.995	103.841	20.103	2.146	0.494
773.499	457.649	80.006	19.994	103.839	20.106	1.925	0.509
773.999	457.893	80.005	19.994	103.841	20.104	2.047	0.514
774.499	458.150	80.007	19.995	103.840	20.104	2.053	0.505
774.999	458.422	80.006	19.994	103.838	20.104	2.028	0.516
775.499	458.667	80.008	19.995	103.835	20.106	1.929	0.523
775.999	458.931	80.006	19.995	103.833	20.108	1.775	0.513
776.500	459.209	80.006	19.994	103.831	20.107	1.824	0.525
777.000	459.474	80.007	19.995	103.830	20.108	1.777	0.542
777.499	459.733	80.006	19.996	103.829	20.106	1.878	0.534
777.999	459.980	80.006	19.995	103.829	20.109	1.720	0.515
778.499	460.243	80.007	19.994	103.830	20.107	1.833	0.508
778.999	460.490	80.007	19.994	103.831	20.107	1.865	0.511
779.499	460.764	80.007	19.995	103.831	20.107	1.831	0.515
779.999	461.004	80.006	19.996	103.832	20.109	1.703	0.517
780.499	461.275	80.007	19.994	103.831	20.111	1.566	0.513
780.999	461.539	80.006	19.995	103.831	20.111	1.551	0.523
781.499	461.797	80.006	19.993	103.829	20.109	1.739	0.528
781.999	462.042	80.006	19.995	103.829	20.110	1.643	0.512
782.499	462.306	80.007	19.995	103.830	20.109	1.726	0.506
782.999	462.557	80.007	19.995	103.832	20.110	1.668	0.512
783.499	462.851	80.007	19.994	103.831	20.109	1.711	0.530
783.999	463.073	80.007	19.995	103.832	20.113	1.446	0.530
784.499	463.334	80.007	19.996	103.836	20.110	1.613	0.500
784.999	463.581	80.006	19.996	103.843	20.110	1.643	0.496
785.499	463.868	80.006	19.996	103.847	20.110	1.662	0.521
785.999	464.103	80.008	19.994	103.847	20.110	1.668	0.528
786.499	464.366	80.006	19.995	103.849	20.111	1.572	0.510
786.999	464.606	80.005	19.995	103.851	20.107	1.837	0.500
787.499	464.863	80.007	19.994	103.846	20.110	1.673	0.500
787.999	465.141	80.006	19.996	103.839	20.110	1.621	0.516
788.499	465.388	80.006	19.994	103.839	20.108	1.777	0.530
788.999	465.642	80.006	19.994	103.839	20.109	1.687	0.513
789.499	465.912	80.008	19.994	103.837	20.109	1.737	0.512
789.999	466.187	80.008	19.995	103.834	20.115	1.291	0.535
790.500	466.419	80.006	19.995	103.835	20.110	1.660	0.526
791.000	466.679	80.006	19.994	103.834	20.108	1.791	0.499
791.499	466.955	80.005	19.995	103.832	20.109	1.733	0.514
791.999	467.198	80.006	19.995	103.828	20.108	1.795	0.528
792.499	467.474	80.006	19.996	103.828	20.109	1.739	0.519
792.999	467.748	80.007	19.995	103.827	20.107	1.814	0.534
793.499	467.986	80.006	19.995	103.830	20.109	1.696	0.531
793.999	468.246	80.005	19.994	103.831	20.112	1.474	0.505
794.499	468.530	80.008	19.994	103.831	20.108	1.763	0.520
794.999	468.747	80.007	19.993	103.832	20.110	1.641	0.523
795.499	469.053	80.006	19.993	103.837	20.114	1.398	0.513
795.999	469.288	80.005	19.994	103.836	20.108	1.767	0.532
796.499	469.557	80.007	19.994	103.836	20.110	1.608	0.522
796.999	469.809	80.006	19.995	103.838	20.111	1.600	0.512
797.499	470.092	80.007	19.994	103.836	20.115	1.304	0.528
797.999	470.349	80.007	19.994	103.833	20.111	1.544	0.538
798.499	470.586	80.007	19.993	103.833	20.112	1.497	0.517
799.000	470.883	80.007	19.994	103.838	20.112	1.493	0.514
799.500	471.107	80.008	19.994	103.837	20.113	1.428	0.528
800.000	471.382	80.006	19.994	103.836	20.112	1.491	0.510
800.499	471.643	80.007	19.995	103.834	20.109	1.686	0.517
800.999	471.906	80.007	19.993	103.831	20.115	1.324	0.530
801.499	472.158	80.007	19.994	103.826	20.113	1.454	0.519
801.999	472.407	80.008	19.994	103.825	20.113	1.467	0.508
802.499	472.672	80.007	19.995	103.826	20.113	1.458	0.508
802.999	472.916	80.007	19.995	103.826	20.115	1.332	0.512
803.499	473.182	80.006	19.995	103.828	20.113	1.420	0.510
803.999	473.443	80.008	19.994	103.828	20.111	1.602	0.518
804.499	473.725	80.008	19.994	103.828	20.112	1.506	0.535
804.999	473.976	80.008	19.994	103.828	20.113	1.437	0.538
805.499	474.241	80.008	19.993	103.828	20.109	1.724	0.525
806.000	474.505	80.008	19.993	103.827	20.111	1.583	0.522
806.500	474.765	80.007	19.993	103.827	20.110	1.653	0.527
806.999	475.045	80.008	19.994	103.828	20.111	1.566	0.532
807.499	475.284	80.008	19.993	103.828	20.109	1.701	0.530
807.999	475.538	80.009	19.993	103.827	20.111	1.572	0.506
808.499	475.766	80.009	19.993	103.827	20.112	1.525	0.487
808.999	476.020	80.009	19.993	103.827	20.110	1.658	0.482
809.499	476.326	80.009	19.992	103.827	20.111	1.593	0.521
809.999	476.560	80.009	19.993	103.827	20.113	1.435	0.550
810.499	476.798	80.008	19.994	103.827	20.111	1.595	0.506
810.999	477.058	80.008	19.993	103.828	20.113	1.418	0.485
811.499	477.283	80.009	19.994	103.828	20.112	1.471	0.491
811.999	477.619	80.008	19.994	103.828	20.114	1.366	0.523
812.499	477.840	80.007	19.993	103.828	20.115	1.291	0.560
813.000	478.073	80.008	19.993	103.829	20.114	1.399	0.505
813.500	478.366	80.008	19.994	103.829	20.114	1.362	0.489
813.999	478.605	80.007	19.994	103.829	20.114	1.353	0.529
814.499	478.893	80.007	19.994	103.830	20.111	1.538	0.529
814.999	479.126	80.007	19.994	103.830	20.113	1.428	0.524
815.499	479.392	80.007	19.992	103.830	20.115	1.294	0.511
815.999	479.633	80.007	19.994	103.829	20.115	1.281	0.503
816.499	479.947	80.007	19.995	103.829	20.117	1.148	0.531
816.999	480.162	80.007	19.995	103.828	20.117	1.139	0.542
817.499	480.397	80.007	19.993	103.830	20.115	1.281	0.490
817.999	480.656	80.006	19.994	103.830	20.115	1.300	0.472
818.499	480.889	80.008	19.993	103.828	20.114	1.371	0.492
818.999	481.167	80.008	19.993	103.827	20.116	1.204	0.501
819.499	481.422	80.008	19.996	103.827	20.114	1.351	0.522
819.999	481.670	80.007	19.994	103.826	20.115	1.330	0.518
820.499	481.930	80.006	19.994	103.825	20.114	1.349	0.506
820.999	482.162	80.008	19.993	103.828	20.115	1.319	0.500
821.499	482.383	80.008	19.993	103.829	20.115	1.276	0.472
821.999	482.696	80.007	19.995	103.829	20.115	1.309	0.494
822.499	482.921	80.008	19.993	103.829	20.116	1.242	0.536
822.999	483.157	80.007	19.992	103.829	20.114	1.339	0.499
823.499	483.450	80.008	19.994	103.829	20.116	1.249	0.495
823.999	483.712	80.006	19.995	103.830	20.116	1.218	0.542
824.499	483.969	80.008	19.994	103.830	20.117	1.159	0.536
824.999	484.229	80.007	19.993	103.830	20.116	1.249	0.518
825.499	484.492	80.006	19.996	103.830	20.118	1.067	0.520
825.999	484.729	80.008	19.995	103.830	20.114	1.338	0.511
826.499	485.013	80.007	19.996	103.830	20.115	1.274	0.511
826.999	485.263	80.007	19.994	103.829	20.117	1.169	0.528
827.499	485.506	80.009	19.993	103.825	20.115	1.328	0.514
827.999	485.774	80.007	19.995	103.821	20.117	1.191	0.502
828.499	486.020	80.007	19.994	103.819	20.117	1.133	0.512
828.999	486.282	80.010	19.994	103.818	20.118	1.129	0.511
829.499	486.551	80.008	19.994	103.819	20.117	1.141	0.520
829.999	486.786	80.011	19.993	103.823	20.115	1.300	0.518
830.499	487.048	80.009	19.994	103.827	20.117	1.189	0.500
830.999	487.339	80.009	19.994	103.829	20.116	1.201	0.525
831.499	487.558	80.009	19.993	103.830	20.119	1.035	0.532
831.999	487.826	80.008	19.994	103.830	20.119	1.039	0.498
832.499	488.041	80.009	19.994	103.828	20.120	0.936	0.485
832.999	488.308	80.008	19.994	103.828	20.117	1.133	0.482
833.499	488.543	80.010	19.993	103.828	20.118	1.110	0.492
833.999	488.812	80.008	19.994	103.829	20.118	1.107	0.503
834.499	489.109	80.009	19.992	103.829	20.117	1.182	0.535
834.999	489.334	80.009	19.994	103.832	20.119	1.056	0.544
835.499	489.589	80.008	19.992	103.832	20.118	1.071	0.500
835.999	489.857	80.009	19.994	103.831	20.118	1.110	0.501
836.499	490.120	80.008	19.994	103.830	20.117	1.180	0.527
837.000	490.365	80.008	19.994	103.830	20.122	0.846	0.519
837.500	490.604	80.010	19.994	103.829	20.117	1.140	0.496
837.999	490.827	80.009	19.992	103.829	20.119	1.000	0.473
838.499	491.118	80.008	19.993	103.829	20.119	1.026	0.488
838.999	491.350	80.009	19.994	103.829	20.116	1.225	0.519
839.499	491.600	80.008	19.993	103.826	20.115	1.330	0.503
839.999	491.869	80.008	19.994	103.825	20.117	1.156	0.500
840.499	492.112	80.008	19.995	103.825	20.117	1.187	0.515
840.999	492.379	80.008	19.993	103.825	20.116	1.266	0.511
841.499	492.655	80.008	19.994	103.824	20.114	1.343	0.527
842.000	492.886	80.008	19.993	103.822	20.116	1.238	0.525
842.500	493.144	80.006	19.995	103.818	20.117	1.139	0.498
842.999	493.387	80.006	19.993	103.816	20.118	1.109	0.495
843.499	493.667	80.007	19.993	103.815	20.116	1.240	0.512
843.999	493.908	80.005	19.995	103.814	20.118	1.124	0.522
844.499	494.163	80.007	19.993	103.819	20.114	1.353	0.508
844.999	494.415	80.006	19.995	103.823	20.117	1.193	0.502
845.500	494.662	80.007	19.994	103.820	20.118	1.131	0.503
846.000	494.968	80.008	19.994	103.819	20.120	0.928	0.526
846.499	495.190	80.006	19.995	103.819	20.118	1.118	0.540
846.999	495.454	80.006	19.994	103.819	20.119	1.050	0.507
847.499	495.723	80.005	19.996	103.820	20.118	1.099	0.510
847.999	495.959	80.005	19.995	103.824	20.118	1.110	0.519
848.499	496.211	80.006	19.995	103.821	20.118	1.082	0.496
848.999	496.452	80.006	19.994	103.820	20.117	1.189	0.491
849.499	496.714	80.006	19.995	103.821	20.117	1.137	0.499
849.999	496.944	80.008	19.996	103.820	20.120	0.987	0.498
850.499	497.207	80.004	19.995	103.821	20.117	1.135	0.492
850.999	497.489	80.006	19.995	103.826	20.117	1.169	0.518
851.499	497.726	80.008	19.995	103.827	20.120	0.930	0.532
851.999	497.942	80.005	19.993	103.827	20.117	1.184	0.487
852.499	498.216	80.005	19.995	103.827	20.117	1.193	0.472
852.999	498.452	80.007	19.995	103.826	20.115	1.319	0.500
853.499	498.740	80.008	19.994	103.827	20.118	1.067	0.517
853.999	498.982	80.006	19.995	103.829	20.115	1.268	0.527
854.499	499.214	80.006	19.995	103.832	20.117	1.148	0.502
854.999	499.477	80.006	19.993	103.832	20.116	1.221	0.484
855.499	499.725	80.005	19.995	103.832	20.114	1.382	0.503
855.999	499.970	80.007	19.995	103.830	20.118	1.099	0.502
856.499	500.258	80.007	19.994	103.826	20.118	1.107	0.513
856.999	500.507	80.005	19.994	103.818	20.117	1.159	0.535
857.499	500.721	80.007	19.993	103.815	20.115	1.324	0.500
857.999	501.016	80.007	19.993	103.814	20.116	1.210	0.486
858.499	501.242	80.007	19.995	103.815	20.117	1.138	0.515
858.999	501.463	80.008	19.994	103.817	20.117	1.144	0.484
859.499	501.743	80.008	19.995	103.823	20.119	1.016	0.474
859.999	502.009	80.007	19.994	103.827	20.119	1.011	0.524
860.499	502.249	80.006	19.995	103.826	20.116	1.200	0.526
860.999	502.529	80.007	19.994	103.823	20.118	1.067	0.513
861.499	502.761	80.006	19.994	103.819	20.121	0.865	0.516
861.999	503.005	80.007	19.994	103.813	20.119	1.017	0.494
862.499	503.251	80.007	19.994	103.812	20.119	1.024	0.483
862.999	503.484	80.008	19.994	103.815	20.119	1.047	0.484
863.499	503.745	80.007	19.995	103.817	20.120	0.959	0.486
863.999	503.984	80.009	19.993	103.821	20.119	1.049	0.497
864.499	504.231	80.007	19.993	103.826	20.120	0.960	0.493
864.999	504.459	80.007	19.994	103.825	20.119	1.039	0.481
865.499	504.748	80.008	19.993	103.823	20.118	1.080	0.496
865.999	504.989	80.005	19.993	103.822	20.117	1.168	0.524
866.499	505.242	80.007	19.993	103.821	20.116	1.212	0.513
866.999	505.462	80.007	19.994	103.816	20.118	1.093	0.484
867.499	505.754	80.006	19.995	103.813	20.117	1.137	0.492
867.999	506.008	80.006	19.994	103.812	20.117	1.144	0.529
868.499	506.226	80.006	19.994	103.810	20.119	1.028	0.509
868.999	506.500	80.007	19.993	103.808	20.120	0.992	0.482
869.499	506.769	80.005	19.995	103.806	20.119	1.045	0.518
869.999	507.015	80.005	19.996	103.803	20.118	1.093	0.529
870.499	507.245	80.005	19.993	103.802	20.118	1.078	0.495
870.999	507.513	80.004	19.995	103.803	20.117	1.135	0.487
871.499	507.772	80.005	19.995	103.798	20.118	1.080	0.512
871.999	508.006	80.005	19.994	103.799	20.117	1.161	0.510
872.499	508.291	80.005	19.996	103.804	20.122	0.825	0.506
872.999	508.518	80.006	19.995	103.808	20.119	1.041	0.516
873.499	508.789	80.006	19.994	103.811	20.116	1.245	0.506
873.999	509.042	80.007	19.996	103.819	20.117	1.170	0.511
874.499	509.287	80.005	19.996	103.820	20.119	1.026	0.511
874.999	509.557	80.005	19.994	103.816	20.118	1.077	0.506
875.499	509.827	80.006	19.994	103.813	20.118	1.077	0.527
875.999	510.081	80.005	19.995	103.811	20.118	1.127	0.532
876.499	510.299	80.006	19.995	103.807	20.116	1.257	0.498
876.999	510.607	80.003	19.995	103.806	20.116	1.240	0.499
877.499	510.820	80.006	19.994	103.806	20.115	1.279	0.523
877.999	511.104	80.005	19.994	103.805	20.118	1.106	0.509
878.499	511.342	80.005	19.994	103.802	20.117	1.198	0.510
878.999	511.607	80.005	19.996	103.801	20.117	1.155	0.513
879.499	511.843	80.004	19.994	103.800	20.115	1.332	0.502
879.999	512.115	80.005	19.996	103.797	20.118	1.114	0.505
880.499	512.343	80.005	19.995	103.795	20.116	1.255	0.504
880.999	512.597	80.004	19.996	103.793	20.119	1.048	0.491
881.499	512.843	80.005	19.995	103.791	20.118	1.129	0.491
881.999	513.161	80.005	19.995	103.791	20.120	0.945	0.532
882.499	513.403	80.006	19.995	103.791	20.118	1.088	0.562
882.999	513.674	80.004	19.995	103.791	20.118	1.112	0.536
883.499	513.958	80.007	19.995	103.792	20.119	1.000	0.534
883.999	514.206	80.007	19.995	103.792	20.120	0.977	0.544
884.499	514.440	80.007	19.994	103.792	20.116	1.240	0.507
884.999	514.694	80.006	19.993	103.798	20.119	1.000	0.485
885.499	514.957	80.008	19.996	103.804	20.119	1.017	0.502
885.999	515.195	80.006	19.996	103.810	20.118	1.078	0.509
886.499	515.479	80.008	19.994	103.811	20.121	0.885	0.512
886.999	515.748	80.007	19.995	103.812	20.120	0.955	0.538
887.499	516.010	80.006	19.995	103.811	20.123	0.741	0.542
887.999	516.247	80.008	19.994	103.807	20.120	0.928	0.515
888.499	516.505	80.008	19.993	103.802	20.117	1.180	0.497
888.999	516.781	80.008	19.994	103.801	20.119	1.032	0.514
889.499	517.024	80.007	19.994	103.803	20.117	1.198	0.527
889.999	517.295	80.007	19.995	103.801	20.115	1.307	0.517
890.499	517.573	80.008	19.993	103.800	20.116	1.240	0.531
890.999	517.820	80.008	19.993	103.803	20.117	1.189	0.536
891.499	518.066	80.007	19.993	103.804	20.116	1.229	0.509
891.999	518.360	80.008	19.993	103.803	20.116	1.228	0.517
892.499	518.613	80.007	19.993	103.800	20.115	1.286	0.544
892.999	518.847	80.009	19.992	103.797	20.116	1.228	0.517
893.499	519.076	80.007	19.993	103.796	20.114	1.399	0.475
893.999	519.331	80.008	19.993	103.795	20.115	1.271	0.473
894.499	519.606	80.008	19.993	103.797	20.115	1.278	0.507
894.999	519.863	80.007	19.993	103.804	20.113	1.469	0.531
895.499	520.132	80.008	19.993	103.807	20.114	1.399	0.528
895.999	520.400	80.007	19.993	103.807	20.117	1.135	0.531
896.499	520.656	80.007	19.993	103.811	20.115	1.328	0.531
896.999	520.904	80.006	19.994	103.814	20.116	1.208	0.514
897.499	521.160	80.006	19.994	103.808	20.116	1.212	0.504
897.999	521.412	80.007	19.995	103.806	20.117	1.167	0.506
898.499	521.662	80.007	19.993	103.804	20.115	1.300	0.505
898.999	521.947	80.007	19.994	103.802	20.114	1.390	0.519
899.499	522.215	80.005	19.993	103.798	20.115	1.315	0.544
899.999	522.444	80.007	19.994	103.803	20.117	1.161	0.525
900.499	522.737	80.006	19.994	103.810	20.118	1.076	0.510
900.999	522.962	80.007	19.994	103.818	20.117	1.146	0.520
901.499	523.264	80.006	19.994	103.826	20.118	1.110	0.523
901.999	523.490	80.006	19.994	103.842	20.121	0.889	0.528
902.499	523.757	80.006	19.993	103.860	20.120	0.943	0.511
902.999	524.007	80.007	19.994	103.895	20.119	1.052	0.505
903.499	524.267	80.007	19.993	103.923	20.119	1.022	0.513
903.999	524.523	80.008	19.993	103.930	20.119	1.052	0.513
904.499	524.793	80.008	19.994	103.922	20.117	1.133	0.520
904.999	525.044	80.007	19.993	103.903	20.118	1.093	0.523
905.499	525.303	80.007	19.994	103.867	20.117	1.136	0.516
905.999	525.577	80.007	19.994	103.838	20.120	0.964	0.522
906.499	525.777	80.006	19.993	103.824	20.118	1.097	0.503
906.999	526.072	80.007	19.994	103.823	20.118	1.108	0.484
907.499	526.305	80.007	19.994	103.823	20.117	1.170	0.512
907.999	526.564	80.007	19.993	103.822	20.115	1.288	0.510
908.499	526.845	80.008	19.994	103.822	20.115	1.275	0.516
909.000	527.101	80.007	19.994	103.825	20.115	1.333	0.539
909.500	527.352	80.007	19.993	103.819	20.115	1.294	0.523
909.999	527.599	80.007	19.993	103.812	20.115	1.320	0.502
910.499	527.900	80.008	19.994	103.806	20.119	1.050	0.523
910.999	528.142	80.007	19.994	103.799	20.117	1.176	0.546
911.499	528.406	80.009	19.994	103.793	20.118	1.078	0.525
911.999	528.669	80.008	19.993	103.792	20.115	1.294	0.516
912.499	528.875	80.009	19.994	103.791	20.119	1.028	0.498
912.999	529.163	80.007	19.994	103.791	20.115	1.281	0.482
913.499	529.441	80.009	19.994	103.795	20.113	1.414	0.531
913.999	529.669	80.007	19.993	103.795	20.115	1.313	0.536
914.499	529.922	80.009	19.994	103.795	20.114	1.360	0.493
914.999	530.210	80.009	19.994	103.795	20.114	1.350	0.511
915.499	530.445	80.010	19.993	103.796	20.116	1.236	0.533
915.999	530.734	80.007	19.993	103.792	20.116	1.200	0.524
916.499	530.975	80.010	19.994	103.792	20.116	1.204	0.527
916.999	531.239	80.009	19.993	103.795	20.115	1.320	0.518
917.499	531.515	80.008	19.995	103.796	20.116	1.232	0.523
917.999	531.730	80.009	19.993	103.795	20.116	1.209	0.515
918.499	531.982	80.009	19.994	103.796	20.116	1.264	0.479
918.999	532.255	80.010	19.993	103.796	20.118	1.110	0.496
919.499	532.498	80.010	19.995	103.792	20.116	1.208	0.521
919.999	532.771	80.007	19.994	103.791	20.115	1.271	0.516
920.499	533.048	80.008	19.993	103.790	20.114	1.375	0.533
920.999	533.270	80.009	19.993	103.791	20.118	1.090	0.524
921.499	533.551	80.009	19.993	103.793	20.116	1.236	0.501
921.999	533.796	80.007	19.993	103.796	20.117	1.180	0.515
922.499	534.011	80.007	19.992	103.798	20.117	1.169	0.493
922.999	534.302	80.007	19.993	103.799	20.115	1.326	0.482
923.499	534.574	80.008	19.993	103.798	20.116	1.223	0.534
923.999	534.794	80.006	19.994	103.795	20.115	1.307	0.527
924.499	535.058	80.008	19.994	103.792	20.116	1.200	0.488
924.999	535.348	80.005	19.993	103.791	20.116	1.212	0.519
925.499	535.608	80.007	19.993	103.790	20.117	1.199	0.552
925.999	535.854	80.006	19.994	103.791	20.116	1.261	0.528
926.499	536.123	80.005	19.993	103.792	20.117	1.142	0.511
926.999	536.375	80.007	19.993	103.792	20.117	1.165	0.518
927.499	536.594	80.006	19.993	103.789	20.118	1.076	0.496
927.999	536.899	80.006	19.994	103.785	20.118	1.071	0.497
928.499	537.152	80.006	19.994	103.784	20.118	1.131	0.541
928.999	537.416	80.006	19.993	103.783	20.117	1.170	0.538
929.499	537.631	80.006	19.992	103.783	20.117	1.147	0.498
929.999	537.855	80.006	19.994	103.786	20.115	1.271	0.459
930.499	538.138	80.005	19.993	103.790	20.115	1.309	0.473
930.999	538.387	80.007	19.993	103.790	20.116	1.208	0.519
931.499	538.642	80.005	19.993	103.789	20.116	1.215	0.518
931.999	538.933	80.006	19.994	103.794	20.115	1.275	0.525
932.499	539.167	80.006	19.994	103.801	20.114	1.390	0.536
932.999	539.426	80.006	19.994	103.808	20.119	1.063	0.509
933.499	539.671	80.006	19.994	103.815	20.113	1.423	0.498
933.999	539.930	80.006	19.994	103.819	20.115	1.328	0.504
934.499	540.160	80.006	19.994	103.820	20.116	1.200	0.497
934.999	540.453	80.006	19.993	103.821	20.115	1.309	0.506
935.499	540.717	80.007	19.993	103.821	20.116	1.225	0.540
935.999	540.955	80.006	19.995	103.822	20.116	1.208	0.530
936.499	541.197	80.006	19.994	103.824	20.115	1.332	0.491
936.999	541.439	80.006	19.995	103.821	20.115	1.286	0.482
937.500	541.696	80.006	19.994	103.815	20.113	1.450	0.491
938.000	541.922	80.006	19.993	103.804	20.111	1.543	0.491
938.500	542.216	80.007	19.993	103.789	20.115	1.330	0.501
938.999	542.455	80.006	19.994	103.774	20.116	1.243	0.527
939.499	542.697	80.007	19.994	103.770	20.118	1.073	0.507
939.999	542.958	80.007	19.993	103.768	20.115	1.302	0.492
940.499	543.212	80.006	19.995	103.771	20.116	1.208	0.509
940.999	543.468	80.007	19.995	103.785	20.115	1.292	0.512
941.499	543.717	80.005	19.993	103.794	20.117	1.198	0.507
941.999	543.945	80.005	19.995	103.794	20.118	1.065	0.491
942.499	544.234	80.007	19.994	103.793	20.116	1.249	0.498
942.999	544.438	80.005	19.993	103.792	20.116	1.225	0.505
943.499	544.727	80.007	19.994	103.788	20.116	1.232	0.493
943.999	544.950	80.006	19.995	103.788	20.116	1.223	0.502
944.499	545.168	80.007	19.993	103.791	20.117	1.142	0.476
944.999	545.453	80.005	19.993	103.794	20.117	1.195	0.472
945.499	545.699	80.008	19.995	103.798	20.114	1.375	0.517
945.999	545.951	80.006	19.997	103.803	20.116	1.202	0.514
946.499	546.194	80.006	19.994	103.804	20.115	1.311	0.496
946.999	546.457	80.007	19.994	103.802	20.114	1.361	0.501
947.499	546.704	80.007	19.994	103.800	20.116	1.240	0.509
947.999	546.966	80.006	19.994	103.797	20.115	1.271	0.509
948.499	547.240	80.007	19.995	103.792	20.117	1.172	0.522
948.999	547.487	80.006	19.994	103.791	20.118	1.129	0.529
949.499	547.743	80.005	19.994	103.792	20.116	1.236	0.512
949.999	548.003	80.007	19.994	103.797	20.121	0.885	0.509
950.499	548.267	80.006	19.993	103.801	20.118	1.110	0.520
950.999	548.486	80.006	19.994	103.802	20.117	1.185	0.504
951.499	548.752	80.007	19.995	103.803	20.115	1.311	0.484
951.999	549.005	80.006	19.994	103.802	20.115	1.324	0.502
952.499	549.276	80.005	19.994	103.797	20.118	1.112	0.521
952.999	549.503	80.006	19.993	103.796	20.119	1.018	0.511
953.499	549.801	80.006	19.995	103.799	20.119	1.003	0.512
954.000	550.050	80.006	19.994	103.799	20.116	1.222	0.536
954.500	550.322	80.005	19.994	103.799	20.118	1.084	0.534
954.999	550.582	80.006	19.994	103.799	20.116	1.221	0.526
955.499	550.815	80.004	19.994	103.797	20.118	1.071	0.512
955.999	551.092	80.005	19.995	103.793	20.122	0.853	0.501
956.499	551.298	80.004	19.994	103.792	20.120	0.967	0.497
956.999	551.583	80.007	19.994	103.792	20.123	0.733	0.487
957.499	551.858	80.007	19.994	103.792	20.122	0.844	0.526
957.999	552.117	80.005	19.994	103.792	20.116	1.245	0.547
958.499	552.420	80.004	19.995	103.794	20.118	1.121	0.548
958.999	552.593	80.004	19.994	103.794	20.118	1.065	0.519
959.499	552.877	80.005	19.995	103.794	20.119	1.059	0.467
959.999	553.126	80.004	19.994	103.795	20.120	0.941	0.495
960.499	553.380	80.005	19.995	103.794	20.119	1.056	0.517
960.999	553.665	80.005	19.995	103.793	20.119	1.016	0.521
961.499	553.916	80.006	19.994	103.792	20.119	1.063	0.538
961.999	554.195	80.004	19.995	103.784	20.119	0.999	0.533
962.499	554.442	80.005	19.994	103.777	20.118	1.076	0.528
962.999	554.726	80.005	19.994	103.776	20.116	1.234	0.528
963.499	554.966	80.006	19.994	103.772	20.120	0.943	0.528
963.999	555.217	80.007	19.994	103.768	20.118	1.070	0.508
964.499	555.495	80.004	19.994	103.775	20.123	0.765	0.510
964.999	555.751	80.004	19.995	103.777	20.122	0.799	0.532
965.499	555.978	80.006	19.995	103.774	20.123	0.774	0.508
965.999	556.238	80.005	19.995	103.777	20.121	0.866	0.485
966.499	556.468	80.006	19.994	103.780	20.121	0.864	0.489
966.999	556.754	80.006	19.995	103.773	20.123	0.761	0.503
967.499	556.995	80.006	19.995	103.770	20.122	0.832	0.521
967.999	557.223	80.007	19.994	103.767	20.125	0.611	0.498
968.499	557.474	80.005	19.995	103.759	20.122	0.859	0.475
968.999	557.740	80.006	19.995	103.757	20.120	0.941	0.499
969.499	558.029	80.007	19.994	103.762	20.124	0.664	0.536
969.999	558.280	80.007	19.993	103.768	20.122	0.795	0.547
970.499	558.519	80.008	19.995	103.774	20.121	0.905	0.514
970.999	558.802	80.008	19.994	103.781	20.123	0.785	0.506
971.499	559.027	80.006	19.995	103.781	20.122	0.796	0.515
971.999	559.255	80.006	19.995	103.782	20.123	0.780	0.481
972.499	559.530	80.008	19.994	103.781	20.122	0.834	0.478
972.999	559.805	80.008	19.994	103.776	20.123	0.778	0.526
973.499	560.009	80.006	19.995	103.768	20.123	0.739	0.514
973.999	560.266	80.006	19.995	103.763	20.120	0.973	0.470
974.499	560.516	80.008	19.995	103.758	20.123	0.784	0.484
974.999	560.773	80.007	19.994	103.757	20.121	0.907	0.508
975.499	561.034	80.008	19.994	103.763	20.122	0.840	0.513
975.999	561.291	80.008	19.994	103.766	20.124	0.658	0.518
976.499	561.561	80.008	19.995	103.767	20.121	0.868	0.522
976.999	561.802	80.006	19.995	103.771	20.122	0.818	0.519
977.499	562.040	80.008	19.994	103.771	20.122	0.801	0.496
977.999	562.300	80.006	19.994	103.769	20.125	0.626	0.489
978.499	562.548	80.007	19.995	103.767	20.123	0.737	0.503
978.999	562.759	80.007	19.994	103.767	20.124	0.662	0.483
979.500	563.069	80.007	19.996	103.759	20.125	0.628	0.490
980.000	563.296	80.006	19.993	103.754	20.126	0.583	0.529
980.499	563.553	80.006	19.994	103.742	20.124	0.662	0.511
980.999	563.779	80.007	19.995	103.735	20.121	0.913	0.483
981.499	564.056	80.006	19.994	103.728	20.121	0.861	0.493
981.999	564.285	80.006	19.994	103.727	20.124	0.707	0.505
982.499	564.521	80.006	19.994	103.728	20.120	0.930	0.486
982.999	564.776	80.008	19.994	103.734	20.123	0.756	0.478
983.499	565.059	80.008	19.994	103.741	20.124	0.692	0.514
983.999	565.291	80.007	19.993	103.748	20.124	0.701	0.526
984.499	565.511	80.009	19.994	103.752	20.128	0.422	0.483
984.999	565.784	80.006	19.995	103.755	20.125	0.638	0.473
985.499	566.044	80.008	19.994	103.761	20.123	0.771	0.513
985.999	566.263	80.006	19.994	103.766	20.123	0.743	0.506
986.499	566.504	80.007	19.994	103.774	20.124	0.722	0.469
986.999	566.749	80.007	19.993	103.779	20.121	0.889	0.473
987.499	567.011	80.007	19.993	103.779	20.124	0.673	0.496
987.999	567.254	80.006	19.993	103.781	20.124	0.705	0.506
988.499	567.523	80.007	19.995	103.783	20.123	0.733	0.509
988.999	567.734	80.007	19.993	103.783	20.126	0.583	0.496
989.499	568.029	80.008	19.992	103.781	20.124	0.703	0.493
989.999	568.252	80.007	19.993	103.785	20.127	0.512	0.512
990.499	568.548	80.006	19.994	103.783	20.127	0.454	0.518
990.999	568.807	80.008	19.994	103.783	20.125	0.647	0.537
991.499	569.014	80.008	19.995	103.782	20.126	0.557	0.511
991.999	569.282	80.008	19.995	103.785	20.127	0.456	0.470
992.499	569.522	80.008	19.995	103.785	20.125	0.594	0.491
992.999	569.776	80.007	19.995	103.787	20.127	0.499	0.501
993.499	570.027	80.008	19.993	103.787	20.124	0.671	0.500
993.999	570.285	80.009	19.992	103.787	20.126	0.527	0.507
994.499	570.504	80.008	19.994	103.787	20.127	0.503	0.493
994.999	570.781	80.010	19.993	103.786	20.123	0.739	0.486
995.499	571.069	80.007	19.992	103.786	20.130	0.317	0.530
995.999	571.296	80.010	19.993	103.785	20.130	0.268	0.540
996.499	571.530	80.008	19.993	103.782	20.126	0.544	0.488
997.000	571.785	80.008	19.993	103.781	20.124	0.701	0.475
997.500	572.067	80.009	19.994	103.782	20.128	0.392	0.513
997.999	572.329	80.008	19.994	103.782	20.124	0.703	0.541
998.499	572.565	80.007	19.993	103.784	20.126	0.579	0.521
998.999	572.858	80.009	19.993	103.785	20.126	0.568	0.513
999.499	573.079	80.008	19.994	103.786	20.124	0.668	0.521
999.999	573.350	80.008	19.995	103.787	20.124	0.664	0.503
1000.499	573.593	80.008	19.993	103.786	20.125	0.604	0.503
1000.999	573.823	80.007	19.993	103.785	20.130	0.308	0.494
1001.499	574.101	80.008	19.992	103.785	20.126	0.529	0.491
1001.999	574.341	80.007	19.993	103.784	20.127	0.486	0.513
1002.499	574.625	80.008	19.994	103.782	20.129	0.351	0.521
1002.999	574.927	80.007	19.994	103.783	20.126	0.525	0.555
1003.499	575.146	80.008	19.994	103.785	20.125	0.611	0.554
1003.999	575.404	80.007	19.994	103.782	20.129	0.371	0.499
1004.499	575.672	80.006	19.994	103.782	20.128	0.405	0.501
1004.999	575.951	80.003	19.992	103.783	20.127	0.488	0.537
1005.499	576.198	80.006	19.995	103.784	20.130	0.279	0.537
1005.999	576.394	80.004	19.995	103.786	20.129	0.383	0.484
1006.499	576.695	80.007	19.996	103.791	20.132	0.137	0.470
1006.999	576.912	80.005	19.994	103.793	20.131	0.231	0.507
1007.499	577.166	80.005	19.995	103.792	20.129	0.332	0.494
1007.999	577.439	80.006	19.994	103.790	20.127	0.501	0.499
1008.499	577.695	80.005	19.995	103.789	20.129	0.366	0.528
1008.999	577.942	80.006	19.995	103.789	20.128	0.452	0.516
1009.499	578.192	80.006	19.995	103.789	20.128	0.398	0.500
1009.999	578.460	80.007	19.993	103.790	20.131	0.210	0.508
1010.499	578.725	80.005	19.994	103.791	20.131	0.246	0.526
1010.999	578.973	80.005	19.993	103.791	20.131	0.203	0.523
1011.499	579.270	80.006	19.994	103.791	20.129	0.319	0.529
1011.999	579.477	80.006	19.993	103.791	20.128	0.388	0.524
1012.499	579.735	80.006	19.995	103.791	20.132	0.126	0.485
1012.999	580.031	80.005	19.994	103.791	20.130	0.268	0.509
1013.499	580.255	80.007	19.994	103.792	20.127	0.456	0.536
1013.999	580.503	80.005	19.994	103.792	20.130	0.296	0.496
1014.499	580.794	80.006	19.994	103.792	20.128	0.396	0.506
1014.999	581.040	80.006	19.994	103.792	20.127	0.484	0.538
1015.499	581.308	80.005	19.994	103.792	20.125	0.621	0.525
1015.999	581.570	80.006	19.993	103.791	20.129	0.377	0.522
1016.499	581.853	80.007	19.992	103.791	20.129	0.384	0.538
1016.999	582.070	80.007	19.993	103.791	20.128	0.392	0.522
1017.499	582.371	80.006	19.994	103.791	20.129	0.330	0.509
1017.999	582.600	80.006	19.992	103.791	20.127	0.482	0.523
1018.499	582.860	80.006	19.992	103.791	20.131	0.236	0.509
1018.999	583.149	80.005	19.994	103.792	20.130	0.304	0.519
1019.499	583.365	80.006	19.992	103.792	20.128	0.416	0.527
1019.999	583.649	80.007	19.992	103.792	20.131	0.246	0.503
1020.499	583.925	80.006	19.992	103.792	20.129	0.336	0.530
1020.999	584.175	80.007	19.994	103.792	20.130	0.300	0.543
1021.499	584.457	80.006	19.993	103.792	20.130	0.289	0.528
1021.999	584.686	80.008	19.994	103.793	20.129	0.341	0.521
1022.499	584.939	80.007	19.992	103.793	20.131	0.229	0.497
1022.999	585.201	80.006	19.993	103.792	20.129	0.332	0.499
1023.499	585.442	80.007	19.994	103.792	20.131	0.246	0.509
1023.999	585.758	80.006	19.993	103.792	20.130	0.268	0.530
1024.499	585.988	80.006	19.994	103.792	20.132	0.161	0.551
1024.999	586.284	80.005	19.994	103.792	20.130	0.315	0.536
1025.499	586.548	80.006	19.994	103.791	20.131	0.246	0.543
1025.999	586.788	80.007	19.994	103.791	20.131	0.208	0.532
1026.499	587.036	80.005	19.994	103.791	20.134	0.039	0.496
1026.999	587.295	80.008	19.994	103.791	20.133	0.103	0.497
1027.499	587.511	80.005	19.994	103.791	20.131	0.242	0.491
1027.999	587.794	80.006	19.993	103.792	20.132	0.122	0.487
1028.499	588.048	80.006	19.994	103.792	20.134	-0.013	0.518
1028.999	588.305	80.006	19.993	103.792	20.133	0.094	0.524
1029.499	588.576	80.006	19.994	103.792	20.133	0.066	0.520
1029.999	588.805	80.008	19.994	103.792	20.130	0.315	0.514
1030.499	589.086	80.005	19.994	103.792	20.130	0.306	0.505
1030.999	589.325	80.007	19.994	103.791	20.130	0.261	0.515
1031.499	589.586	80.006	19.995	103.791	20.136	-0.122	0.510
1031.999	589.869	80.005	19.995	103.789	20.133	0.056	0.522
1032.499	590.107	80.008	19.994	103.789	20.131	0.195	0.532
1032.999	590.384	80.005	19.994	103.789	20.133	0.075	0.518
1033.499	590.659	80.006	19.994	103.789	20.136	-0.107	0.534
1033.999	590.927	80.006	19.993	103.788	20.132	0.143	0.547
1034.499	591.182	80.006	19.994	103.789	20.130	0.294	0.533
1034.999	591.431	80.006	19.995	103.789	20.134	0.019	0.514
1035.499	591.707	80.005	19.994	103.788	20.133	0.062	0.514
1035.999	591.913	80.005	19.994	103.787	20.133	0.099	0.504
1036.499	592.212	80.006	19.994	103.788	20.134	0.030	0.494
1036.999	592.453	80.005	19.995	103.788	20.133	0.114	0.522
1037.499	592.686	80.005	19.994	103.788	20.129	0.332	0.507
1037.999	592.988	80.005	19.995	103.787	20.134	0.017	0.504
1038.499	593.246	80.007	19.994	103.787	20.136	-0.129	0.548
1038.999	593.510	80.005	19.994	103.787	20.135	-0.066	0.541
1039.499	593.714	80.005	19.994	103.787	20.133	0.062	0.495
1039.999	594.016	80.005	19.996	103.788	20.133	0.101	0.487
1040.499	594.303	80.006	19.994	103.788	20.136	-0.156	0.547
1040.999	594.535	80.006	19.995	103.789	20.134	0.034	0.554
1041.499	594.781	80.005	19.995	103.789	20.138	-0.278	0.499
1041.999	595.056	80.005	19.994	103.788	20.136	-0.150	0.500
1042.499	595.334	80.007	19.994	103.788	20.139	-0.302	0.537
1042.999	595.581	80.006	19.994	103.788	20.137	-0.208	0.539
1043.499	595.843	80.008	19.994	103.788	20.136	-0.092	0.517
1043.999	596.091	80.006	19.994	103.788	20.136	-0.150	0.510
1044.499	596.341	80.006	19.996	103.788	20.136	-0.124	0.504
1044.999	596.603	80.005	19.995	103.787	20.135	-0.075	0.504
1045.499	596.832	80.005	19.995	103.787	20.137	-0.208	0.501
1045.999	597.105	80.007	19.995	103.786	20.135	-0.054	0.497
1046.499	597.364	80.007	19.994	103.784	20.136	-0.131	0.517
1046.999	597.602	80.006	19.995	103.785	20.137	-0.223	0.514
1047.499	597.888	80.008	19.994	103.784	20.134	0.034	0.511
1047.999	598.135	80.007	19.994	103.784	20.134	0.032	0.529
1048.499	598.352	80.008	19.994	103.785	20.134	0.024	0.498
1048.999	598.645	80.007	19.994	103.787	20.136	-0.146	0.487
1049.499	598.834	80.007	19.994	103.787	20.136	-0.101	0.496
1049.999	599.125	80.007	19.995	103.787	20.134	-0.009	0.481
1050.499	599.361	80.008	19.994	103.787	20.133	0.098	0.504
1050.999	599.607	80.008	19.995	103.788	20.134	0.021	0.505
1051.499	599.841	80.008	19.993	103.788	20.137	-0.188	0.481
1051.999	600.138	80.008	19.995	103.788	20.136	-0.150	0.505
1052.499	600.398	80.007	19.994	103.786	20.135	-0.054	0.544
1052.999	600.660	80.007	19.994	103.786	20.134	0.009	0.539
1053.499	600.884	80.007	19.994	103.785	20.134	0.038	0.504
1053.999	601.139	80.008	19.995	103.785	20.134	0.000	0.483
1054.499	601.405	80.007	19.994	103.783	20.136	-0.096	0.500
1054.999	601.681	80.006	19.993	103.784	20.136	-0.109	0.532
1055.499	601.927	80.007	19.993	103.785	20.133	0.090	0.532
1055.999	602.182	80.006	19.995	103.785	20.135	-0.024	0.511
1056.499	602.428	80.008	19.994	103.785	20.136	-0.141	0.501
1056.999	602.639	80.006	19.996	103.785	20.139	-0.351	0.479
1057.499	602.919	80.007	19.995	103.784	20.134	-0.013	0.474
1057.999	603.192	80.007	19.995	103.783	20.133	0.083	0.522
1058.499	603.413	80.006	19.994	103.780	20.133	0.073	0.523
1058.999	603.677	80.007	19.994	103.780	20.135	-0.073	0.490
1059.499	603.955	80.007	19.995	103.781	20.138	-0.257	0.514
1059.999	604.174	80.008	19.995	103.783	20.138	-0.249	0.519
1060.499	604.466	80.007	19.995	103.784	20.136	-0.109	0.504
1060.999	604.697	80.006	19.994	103.787	20.135	-0.086	0.517
1061.499	604.968	80.006	19.994	103.787	20.136	-0.116	0.513
1062.000	605.229	80.007	19.994	103.787	20.135	-0.053	0.517
1062.500	605.459	80.005	19.995	103.786	20.134	0.008	0.511
1062.999	605.712	80.005	19.994	103.787	20.135	-0.058	0.488
1063.499	605.972	80.005	19.995	103.787	20.132	0.163	0.498
1063.999	606.239	80.006	19.995	103.787	20.138	-0.238	0.519
1064.499	606.466	80.007	19.995	103.787	20.137	-0.182	0.511
1064.999	606.726	80.005	19.994	103.788	20.137	-0.163	0.491
1065.499	606.987	80.006	19.995	103.787	20.140	-0.364	0.504
1065.999	607.297	80.005	19.996	103.789	20.139	-0.328	0.546
1066.499	607.502	80.006	19.996	103.789	20.139	-0.296	0.543
1066.999	607.745	80.005	19.996	103.790	20.139	-0.351	0.481
1067.499	607.977	80.005	19.996	103.790	20.136	-0.120	0.461
1067.999	608.298	80.008	19.995	103.790	20.140	-0.388	0.514
1068.499	608.485	80.007	19.996	103.789	20.137	-0.182	0.531
1068.999	608.761	80.007	19.995	103.789	20.137	-0.163	0.485
1069.499	609.058	80.006	19.995	103.788	20.137	-0.216	0.518
1069.999	609.279	80.007	19.996	103.789	20.138	-0.242	0.546
1070.499	609.500	80.008	19.995	103.789	20.136	-0.154	0.480
1070.999	609.799	80.008	19.996	103.789	20.138	-0.253	0.480
1071.499	610.044	80.007	19.994	103.789	20.139	-0.351	0.532
1071.999	610.280	80.009	19.994	103.790	20.139	-0.304	0.513
1072.499	610.540	80.009	19.996	103.787	20.140	-0.409	0.489
1072.999	610.741	80.008	19.993	103.786	20.140	-0.409	0.479
1073.499	611.077	80.010	19.994	103.786	20.139	-0.343	0.499
1073.999	611.301	80.009	19.994	103.786	20.140	-0.379	0.549
1074.499	611.544	80.008	19.994	103.785	20.137	-0.188	0.513
1074.999	611.779	80.009	19.993	103.787	20.138	-0.233	0.472
1075.499	612.053	80.008	19.993	103.788	20.140	-0.399	0.493
1075.999	612.324	80.009	19.993	103.787	20.140	-0.375	0.527
1076.499	612.569	80.009	19.994	103.787	20.140	-0.418	0.531
1076.999	612.802	80.008	19.993	103.787	20.136	-0.154	0.497
1077.499	613.076	80.008	19.993	103.787	20.141	-0.433	0.492
1077.999	613.343	80.007	19.992	103.787	20.140	-0.418	0.524
1078.499	613.610	80.009	19.993	103.788	20.140	-0.407	0.538
1078.999	613.893	80.009	19.992	103.789	20.142	-0.499	0.542
1079.499	614.121	80.008	19.994	103.789	20.135	-0.073	0.530
1079.999	614.377	80.007	19.994	103.788	20.143	-0.564	0.498
1080.499	614.661	80.008	19.992	103.788	20.141	-0.454	0.512
1080.999	614.907	80.009	19.994	103.787	20.140	-0.373	0.535
1081.499	615.177	80.007	19.994	103.787	20.142	-0.497	0.523
1081.999	615.409	80.009	19.993	103.788	20.140	-0.418	0.509
1082.499	615.596	80.009	19.993	103.789	20.138	-0.229	0.460
1082.999	615.961	80.006	19.993	103.791	20.134	0.004	0.486
1083.499	616.239	80.008	19.993	103.791	20.142	-0.533	0.598
1083.999	616.430	80.005	19.994	103.791	20.139	-0.302	0.556
1084.499	616.701	80.007	19.993	103.791	20.140	-0.390	0.465
1084.999	616.973	80.006	19.993	103.791	20.140	-0.418	0.503
1085.499	617.252	80.005	19.993	103.791	20.141	-0.450	0.547
1085.999	617.530	80.005	19.993	103.791	20.140	-0.388	0.554
1086.499	617.737	80.005	19.992	103.792	20.132	0.124	0.521
1086.999	618.018	80.006	19.993	103.792	20.153	-1.264	0.487
1087.499	618.230	80.006	19.994	103.790	20.140	-0.401	0.491
1087.999	618.512	80.007	19.993	103.788	20.131	0.223	0.493
1088.499	618.841	80.005	19.994	103.788	20.129	0.334	0.552
1088.999	618.986	80.005	19.993	103.788	20.129	0.341	0.543
1089.499	619.388	80.006	19.994	103.787	20.125	0.639	0.511
1089.999	619.596	80.007	19.993	103.789	20.131	0.231	0.578
1090.499	619.862	80.006	19.993	103.792	20.141	-0.469	0.542
1090.999	620.079	80.007	19.994	103.792	20.140	-0.398	0.479
1091.499	620.323	80.005	19.995	103.791	20.141	-0.435	0.472
1091.999	620.676	80.005	19.993	103.791	20.136	-0.124	0.529
1092.499	620.794	80.005	19.994	103.791	20.135	-0.034	0.534
1092.999	621.211	80.005	19.993	103.792	20.140	-0.399	0.503
1093.499	621.383	80.007	19.993	103.791	20.142	-0.495	0.562
1093.999	621.685	80.007	19.994	103.791	20.144	-0.664	0.531
1094.499	621.954	80.006	19.993	103.790	20.137	-0.219	0.523
1094.999	622.233	80.005	19.994	103.789	20.137	-0.182	0.560
1095.499	622.514	80.005	19.994	103.789	20.140	-0.388	0.554
1096.000	622.755	80.006	19.994	103.787	20.144	-0.653	0.541
1096.500	623.074	80.006	19.993	103.787	20.140	-0.379	0.541
1096.999	623.149	80.004	19.994	103.788	20.144	-0.649	0.477
1097.499	623.597	80.005	19.995	103.788	20.143	-0.615	0.458
1097.999	623.741	80.006	19.993	103.788	20.139	-0.294	0.557
1098.499	624.219	80.006	19.994	103.788	20.142	-0.523	0.607
1098.999	624.425	80.005	19.994	103.788	20.140	-0.375	0.654
1099.499	624.591	80.007	19.993	103.788	20.139	-0.293	0.528
1099.999	624.841	80.007	19.994	103.787	20.144	-0.692	0.394
1100.499	624.730	80.008	19.994	103.787	20.143	-0.564	0.277
1100.999	626.069	80.008	19.992	103.788	20.141	-0.467	0.684
1101.499	625.312	80.004	19.993	103.788	20.143	-0.570	0.905
1102.000	625.687	80.008	19.994	103.789	20.142	-0.546	0.100
1102.500	626.158	80.009	19.992	103.789	20.141	-0.458	0.232
1102.999	626.303	80.009	19.993	103.789	20.143	-0.608	0.732
1103.499	626.459	80.007	19.993	103.790	20.144	-0.692	0.459
1103.999	626.324	80.005	19.994	103.791	20.142	-0.510	0.161
1104.499	627.558	80.006	19.994	103.791	20.143	-0.598	0.560
1104.999	627.425	80.006	19.992	103.790	20.145	-0.720	1.100
1105.499	628.390	80.007	19.994	103.790	20.144	-0.638	0.967
1105.999	628.075	80.010	19.993	103.787	20.148	-0.958	0.741
1106.499	628.380	80.007	19.994	103.782	20.144	-0.649	0.320
1106.999	628.748	80.006	19.993	103.782	20.142	-0.559	0.331
1107.500	628.915	80.007	19.993	103.781	20.141	-0.450	0.604
1108.000	629.652	80.007	19.994	103.781	20.144	-0.683	0.719
1108.499	629.473	80.007	19.994	103.784	20.148	-0.953	0.731
1108.999	629.635	80.006	19.993	103.788	20.144	-0.686	0.271
1109.499	630.051	80.006	19.994	103.788	20.146	-0.786	0.281
1109.999	630.439	80.005	19.994	103.790	20.145	-0.716	0.691
1110.499	630.692	80.008	19.994	103.788	20.146	-0.773	0.722
1110.999	630.952	80.008	19.993	103.788	20.144	-0.649	0.577
1111.499	631.380	80.007	19.993	103.787	20.148	-0.945	0.600
1111.999	631.326	80.007	19.993	103.787	20.148	-0.960	0.531
1112.499	631.925	80.005	19.994	103.786	20.144	-0.679	0.459
1112.999	631.886	80.006	19.993	103.787	20.151	-1.164	0.552
1113.499	632.375	80.005	19.993	103.787	20.148	-0.919	0.505
1113.999	632.737	80.007	19.994	103.789	20.149	-0.981	0.651
1114.499	632.803	80.006	19.993	103.789	20.150	-1.044	0.640
1114.999	633.209	80.006	19.994	103.789	20.147	-0.868	0.450
1115.500	633.369	80.005	19.993	103.789	20.150	-1.037	0.519
1116.000	633.801	80.006	19.994	103.788	20.144	-0.684	0.579
1116.499	633.932	80.005	19.992	103.788	20.145	-0.765	0.577
1116.999	634.324	80.007	19.994	103.788	20.142	-0.516	0.543
1117.499	634.519	80.006	19.994	103.788	20.147	-0.836	0.555
1117.999	634.855	80.006	19.994	103.788	20.148	-0.928	0.559
1118.499	635.167	80.005	19.993	103.788	20.142	-0.519	0.589
1118.999	635.453	80.006	19.993	103.786	20.144	-0.643	0.623
1119.499	635.648	80.006	19.993	103.786	20.147	-0.846	0.540
1119.999	636.016	80.005	19.993	103.784	20.145	-0.756	0.522
1120.499	636.223	80.006	19.994	103.784	20.148	-0.913	0.568
1121.000	636.541	80.005	19.995	103.782	20.148	-0.943	0.550
1121.500	636.726	80.006	19.994	103.782	20.150	-1.052	0.514
1121.999	637.038	80.006	19.994	103.783	20.144	-0.697	0.500
1122.499	637.375	80.005	19.995	103.784	20.146	-0.769	0.572
1122.999	637.545	80.006	19.995	103.785	20.147	-0.891	0.578
1123.499	637.832	80.007	19.994	103.786	20.144	-0.634	0.483
1123.999	638.124	80.005	19.995	103.787	20.146	-0.769	0.518
1124.499	638.450	80.005	19.995	103.787	20.145	-0.709	0.598
1124.999	638.652	80.005	19.994	103.787	20.148	-0.909	0.573
1125.499	638.967	80.007	19.996	103.788	20.144	-0.671	0.522
1125.999	639.354	80.005	19.997	103.788	20.146	-0.831	0.610
1126.499	639.352	80.007	19.995	103.788	20.147	-0.887	0.544
1126.999	640.001	80.007	19.995	103.788	20.146	-0.795	0.516
1127.499	639.945	80.007	19.994	103.789	20.146	-0.802	0.620
1127.999	640.285	80.007	19.994	103.784	20.146	-0.825	0.438
1128.499	640.703	80.007	19.995	103.782	20.143	-0.570	0.521
1128.999	640.833	80.008	19.994	103.782	20.148	-0.922	0.653
1129.499	641.268	80.007	19.995	103.782	20.146	-0.774	0.557
1129.999	641.084	80.006	19.994	103.780	20.146	-0.776	0.408
1130.499	641.700	80.009	19.994	103.780	20.145	-0.765	0.341
1130.999	641.748	80.009	19.993	103.777	20.145	-0.763	0.548
1131.499	642.168	80.008	19.994	103.772	20.145	-0.705	0.566
1131.999	642.424	80.009	19.994	103.770	20.143	-0.617	0.572
1132.499	642.475	80.008	19.995	103.771	20.148	-0.922	0.492
1132.999	642.873	80.008	19.995	103.776	20.145	-0.761	0.378
1133.500	643.144	80.007	19.995	103.781	20.146	-0.819	0.559
1134.000	643.471	80.007	19.995	103.785	20.146	-0.767	0.633
1134.499	643.733	80.008	19.994	103.788	20.146	-0.772	0.593
1134.999	643.962	80.008	19.994	103.788	20.148	-0.951	0.540
1135.499	644.313	80.007	19.995	103.786	20.145	-0.699	0.536
1135.999	644.501	80.007	19.993	103.784	20.148	-0.956	0.560
1136.499	644.765	80.008	19.992	103.784	20.146	-0.795	0.495
1136.999	644.963	80.008	19.994	103.780	20.147	-0.857	0.457
1137.499	645.225	80.007	19.995	103.779	20.145	-0.765	0.461
1137.999	645.542	80.008	19.992	103.777	20.147	-0.900	0.519
1138.500	645.761	80.008	19.993	103.775	20.148	-0.913	0.557
1139.000	646.050	80.008	19.994	103.772	20.149	-1.001	0.522
1139.499	646.302	80.007	19.993	103.771	20.147	-0.889	0.525
1139.999	646.550	80.007	19.995	103.770	20.146	-0.827	0.521
1140.499	646.804	80.007	19.995	103.766	20.148	-0.932	0.501
1140.999	647.053	80.007	19.992	103.767	20.151	-1.147	0.503
1141.499	647.343	80.006	19.995	103.767	20.151	-1.151	0.521
1141.999	647.605	80.007	19.994	103.767	20.150	-1.059	0.546
1142.499	647.792	80.006	19.995	103.767	20.151	-1.146	0.500
1142.999	648.109	80.007	19.994	103.771	20.150	-1.093	0.476
1143.499	648.331	80.006	19.993	103.772	20.149	-1.022	0.521
1143.999	648.618	80.006	19.994	103.773	20.149	-0.986	0.524
1144.499	648.814	80.007	19.993	103.776	20.150	-1.074	0.497
1144.999	649.101	80.007	19.992	103.776	20.147	-0.889	0.483
1145.499	649.337	80.007	19.994	103.774	20.150	-1.039	0.502
1145.999	649.623	80.006	19.995	103.770	20.147	-0.874	0.522
1146.499	649.865	80.005	19.994	103.768	20.147	-0.853	0.525
1146.999	650.121	80.006	19.994	103.766	20.147	-0.894	0.513
1147.499	650.370	80.007	19.994	103.765	20.150	-1.071	0.502
1147.999	650.644	80.007	19.993	103.766	20.148	-0.960	0.514
1148.499	650.910	80.006	19.994	103.768	20.149	-0.971	0.531
1148.999	651.172	80.007	19.995	103.770	20.152	-1.183	0.534
1149.499	651.383	80.006	19.993	103.772	20.152	-1.191	0.501
1149.999	651.689	80.007	19.994	103.777	20.152	-1.221	0.495
1150.499	651.926	80.007	19.995	103.776	20.151	-1.118	0.530
1150.999	652.188	80.007	19.994	103.776	20.152	-1.230	0.521
1151.499	652.427	80.006	19.994	103.776	20.151	-1.127	0.500
1151.999	652.691	80.008	19.995	103.774	20.151	-1.153	0.502
1152.499	652.937	80.006	19.995	103.773	20.155	-1.391	0.506
1152.999	653.235	80.008	19.993	103.773	20.151	-1.131	0.527
1153.499	653.506	80.007	19.995	103.773	20.151	-1.148	0.556
1153.999	653.799	80.008	19.994	103.771	20.152	-1.226	0.567
1154.499	653.986	80.009	19.995	103.769	20.149	-1.009	0.522
1154.999	654.306	80.007	19.994	103.768	20.151	-1.172	0.493
1155.499	654.531	80.007	19.994	103.772	20.152	-1.237	0.526
1155.999	654.834	80.007	19.994	103.774	20.155	-1.384	0.536
1156.499	655.087	80.008	19.994	103.778	20.152	-1.230	0.542
1156.999	655.340	80.009	19.994	103.782	20.152	-1.226	0.531
1157.499	655.652	80.007	19.994	103.783	20.155	-1.386	0.535
1157.999	655.901	80.008	19.994	103.784	20.151	-1.112	0.563
1158.499	656.162	80.009	19.995	103.785	20.155	-1.380	0.536
1158.999	656.419	80.008	19.995	103.783	20.154	-1.327	0.514
1159.499	656.658	80.008	19.994	103.782	20.152	-1.194	0.507
1159.999	656.946	80.008	19.994	103.782	20.151	-1.131	0.511
1160.499	657.195	80.007	19.994	103.781	20.150	-1.072	0.532
1160.999	657.482	80.008	19.993	103.782	20.155	-1.399	0.537
1161.499	657.762	80.007	19.994	103.783	20.155	-1.378	0.552
1161.999	658.019	80.008	19.994	103.785	20.155	-1.412	0.552
1162.499	658.276	80.008	19.994	103.785	20.155	-1.391	0.525
1162.999	658.554	80.007	19.994	103.785	20.152	-1.220	0.524
1163.499	658.791	80.008	19.994	103.785	20.152	-1.211	0.525
1163.999	659.080	80.007	19.994	103.782	20.153	-1.280	0.520
1164.499	659.346	80.007	19.994	103.778	20.153	-1.278	0.540
1164.999	659.659	80.006	19.994	103.778	20.152	-1.222	0.567
1165.499	659.878	80.007	19.995	103.774	20.149	-1.026	0.555
1165.999	660.207	80.005	19.994	103.775	20.152	-1.179	0.540
1166.499	660.437	80.007	19.994	103.777	20.151	-1.170	0.553
1166.999	660.700	80.007	19.994	103.781	20.154	-1.352	0.526
1167.499	660.956	80.006	19.994	103.780	20.152	-1.224	0.506
1167.999	661.228	80.006	19.994	103.781	20.150	-1.082	0.524
1168.499	661.483	80.005	19.993	103.780	20.152	-1.217	0.528
1168.999	661.759	80.007	19.993	103.778	20.154	-1.309	0.529
1169.499	662.039	80.007	19.994	103.773	20.151	-1.121	0.543
1169.999	662.320	80.007	19.994	103.771	20.154	-1.340	0.558
1170.499	662.574	80.005	19.994	103.770	20.153	-1.277	0.548
1170.999	662.836	80.006	19.993	103.767	20.151	-1.172	0.526
1171.499	663.118	80.007	19.993	103.769	20.151	-1.164	0.530
1171.999	663.363	80.006	19.993	103.767	20.155	-1.397	0.535
1172.499	663.641	80.006	19.994	103.766	20.151	-1.168	0.525
1172.999	663.885	80.007	19.993	103.763	20.151	-1.166	0.523
1173.499	664.144	80.006	19.993	103.761	20.153	-1.303	0.512
1173.999	664.419	80.006	19.994	103.755	20.153	-1.288	0.518
1174.499	664.680	80.006	19.993	103.755	20.152	-1.234	0.536
1174.999	664.969	80.007	19.993	103.753	20.153	-1.297	0.543
1175.499	665.196	80.007	19.994	103.757	20.155	-1.410	0.533
1175.999	665.476	80.007	19.994	103.760	20.156	-1.500	0.512
1176.499	665.775	80.006	19.995	103.766	20.155	-1.378	0.543
1176.999	666.044	80.008	19.995	103.770	20.154	-1.333	0.573
1177.499	666.288	80.006	19.993	103.773	20.154	-1.372	0.541
1177.999	666.554	80.007	19.993	103.774	20.153	-1.260	0.512
1178.499	666.819	80.007	19.994	103.774	20.156	-1.451	0.520
1179.000	667.092	80.007	19.994	103.769	20.158	-1.603	0.534
1179.500	667.322	80.006	19.995	103.769	20.153	-1.245	0.521
1179.999	667.575	80.006	19.994	103.768	20.151	-1.121	0.493
1180.499	667.845	80.007	19.994	103.764	20.155	-1.401	0.503
1180.999	668.131	80.007	19.994	103.760	20.155	-1.419	0.539
1181.499	668.365	80.006	19.994	103.760	20.156	-1.446	0.538
1181.999	668.611	80.006	19.995	103.758	20.157	-1.528	0.500
1182.499	668.861	80.008	19.995	103.756	20.152	-1.226	0.488
1182.999	669.115	80.006	19.995	103.755	20.156	-1.474	0.500
1183.499	669.375	80.006	19.994	103.758	20.155	-1.412	0.509
1183.999	669.629	80.007	19.995	103.760	20.156	-1.466	0.514
1184.499	669.912	80.006	19.994	103.761	20.156	-1.474	0.525
1184.999	670.157	80.005	19.993	103.763	20.156	-1.457	0.533
1185.499	670.439	80.007	19.995	103.761	20.159	-1.648	0.528
1186.000	670.707	80.007	19.995	103.765	20.157	-1.569	0.538
1186.500	670.941	80.007	19.996	103.766	20.158	-1.588	0.526
1186.999	671.154	80.008	19.995	103.766	20.160	-1.746	0.475
1187.499	671.417	80.007	19.994	103.771	20.158	-1.612	0.462
1187.999	671.666	80.006	19.994	103.775	20.157	-1.556	0.494
1188.499	671.963	80.007	19.995	103.770	20.153	-1.241	0.528
1188.999	672.171	80.007	19.996	103.768	20.158	-1.601	0.525
1189.499	672.426	80.006	19.994	103.767	20.157	-1.554	0.484
1189.999	672.697	80.007	19.994	103.766	20.157	-1.545	0.495
1190.499	672.938	80.007	19.994	103.765	20.155	-1.436	0.519
1190.999	673.208	80.006	19.994	103.767	20.158	-1.642	0.511
1191.500	673.471	80.005	19.996	103.769	20.158	-1.620	0.521
1192.000	673.712	80.004	19.994	103.770	20.156	-1.453	0.518
1192.499	673.985	80.006	19.994	103.771	20.158	-1.607	0.509
1192.999	674.276	80.007	19.995	103.776	20.160	-1.721	0.539
1193.499	674.504	80.005	19.994	103.779	20.158	-1.631	0.541
1193.999	674.759	80.004	19.994	103.782	20.157	-1.569	0.501
1194.499	675.062	80.006	19.995	103.782	20.158	-1.603	0.521
1194.999	675.296	80.005	19.996	103.781	20.158	-1.641	0.547
1195.499	675.569	80.005	19.994	103.778	20.159	-1.704	0.522
1195.999	675.805	80.006	19.995	103.776	20.158	-1.598	0.508
1196.499	676.056	80.006	19.993	103.777	20.157	-1.538	0.498
1196.999	676.310	80.005	19.994	103.779	20.156	-1.455	0.496
1197.500	676.582	80.008	19.994	103.781	20.160	-1.727	0.515
1198.000	676.871	80.006	19.994	103.780	20.157	-1.537	0.544
1198.499	677.102	80.004	19.994	103.777	20.157	-1.549	0.541
1198.999	677.387	80.006	19.995	103.772	20.162	-1.901	0.518
1199.499	677.591	80.007	19.995	103.773	20.161	-1.822	0.502
1199.999	677.860	80.006	19.993	103.770	20.160	-1.770	0.481
1200.499	678.137	80.008	19.994	103.772	20.160	-1.760	0.509
1200.999	678.424	80.007	19.995	103.777	20.162	-1.862	0.555
1201.499	678.684	80.007	19.995	103.779	20.163	-1.944	0.556
1202.000	678.928	80.005	19.994	103.776	20.160	-1.732	0.526
1202.500	679.156	80.007	19.994	103.774	20.161	-1.796	0.488
1202.999	679.405	80.006	19.993	103.773	20.161	-1.815	0.474
1203.500	679.692	80.007	19.994	103.771	20.163	-1.933	0.506
1204.000	679.897	80.007	19.992	103.773	20.163	-1.981	0.514
1204.499	680.152	80.007	19.994	103.772	20.163	-1.955	0.476
1204.999	680.424	80.008	19.993	103.776	20.161	-1.787	0.494
1205.499	680.669	80.007	19.994	103.779	20.160	-1.749	0.522
1205.999	680.946	80.008	19.994	103.781	20.160	-1.740	0.519
1206.499	681.204	80.006	19.994	103.781	20.160	-1.727	0.529
1206.999	681.465	80.007	19.994	103.784	20.161	-1.811	0.527
1207.499	681.712	80.007	19.993	103.782	20.158	-1.607	0.514
1207.999	681.996	80.008	19.994	103.776	20.161	-1.845	0.520
1208.499	682.258	80.009	19.994	103.777	20.159	-1.670	0.538
1208.999	682.494	80.008	19.995	103.774	20.164	-2.002	0.522
1209.499	682.779	80.008	19.993	103.769	20.159	-1.712	0.509
1209.999	682.982	80.008	19.994	103.769	20.164	-2.023	0.504
1210.499	683.210	80.007	19.995	103.771	20.159	-1.700	0.459
1210.999	683.449	80.007	19.994	103.771	20.161	-1.817	0.449
1211.500	683.734	80.006	19.993	103.769	20.160	-1.740	0.495
1212.000	683.998	80.007	19.993	103.770	20.164	-2.015	0.536
1212.499	684.751	80.007	19.995	103.768	20.161	-1.831	0.783
1212.999	684.731	80.008	19.993	103.766	20.161	-1.811	0.875
1213.499	684.695	80.006	19.994	103.760	20.164	-1.991	0.338
1213.999	684.987	80.006	19.993	103.759	20.163	-1.981	0.100
1214.499	685.219	80.005	19.993	103.757	20.163	-1.955	0.390
1214.999	685.479	80.007	19.995	103.756	20.165	-2.113	0.508
1215.499	685.707	80.007	19.994	103.757	20.164	-2.021	0.490
1215.999	685.950	80.006	19.993	103.759	20.165	-2.055	0.479
1216.499	686.224	80.007	19.994	103.759	20.164	-2.013	0.493
1216.999	686.460	80.006	19.995	103.760	20.164	-1.989	0.513
1217.499	686.691	80.007	19.994	103.759	20.167	-2.236	0.489
1217.999	686.938	80.007	19.994	103.760	20.164	-1.996	0.473
1218.499	687.166	80.007	19.993	103.763	20.165	-2.066	0.476
1218.999	687.432	80.006	19.995	103.767	20.166	-2.147	0.484
1219.499	687.635	80.006	19.995	103.769	20.164	-2.023	0.481
1219.999	687.882	80.007	19.994	103.770	20.165	-2.100	0.460
1220.499	688.160	80.006	19.995	103.767	20.164	-2.046	0.488
1220.999	688.381	80.008	19.993	103.763	20.164	-2.017	0.511
1221.499	688.609	80.007	19.995	103.762	20.166	-2.152	0.474
1221.999	688.857	80.006	19.994	103.760	20.166	-2.122	0.462
1222.499	689.124	80.004	19.996	103.759	20.166	-2.120	0.496
1222.999	689.353	80.008	19.995	103.758	20.167	-2.195	0.506
1223.499	689.596	80.007	19.994	103.756	20.168	-2.278	0.484
1223.999	689.835	80.007	19.994	103.754	20.168	-2.281	0.477
1224.499	690.110	80.005	19.994	103.755	20.168	-2.296	0.498
1224.999	690.372	80.008	19.994	103.756	20.164	-2.040	0.525
1225.499	690.591	80.007	19.994	103.756	20.166	-2.188	0.509
1225.999	690.850	80.007	19.994	103.761	20.168	-2.283	0.479
1226.499	691.109	80.007	19.995	103.768	20.168	-2.315	0.498
1226.999	691.361	80.008	19.994	103.766	20.166	-2.171	0.515
1227.499	691.596	80.007	19.993	103.764	20.169	-2.326	0.499
1227.999	691.870	80.009	19.994	103.764	20.167	-2.203	0.498
1228.500	692.089	80.007	19.994	103.759	20.167	-2.219	0.501
1229.000	692.370	80.008	19.994	103.753	20.166	-2.180	0.497
1229.499	692.621	80.008	19.994	103.757	20.166	-2.144	0.516
1229.999	692.849	80.009	19.995	103.763	20.166	-2.180	0.505
1230.499	693.149	80.008	19.994	103.769	20.168	-2.274	0.503
1230.999	693.330	80.007	19.994	103.771	20.168	-2.311	0.505
1231.499	693.470	80.007	19.994	103.774	20.167	-2.255	0.401
1231.999	693.862	80.007	19.995	103.767	20.166	-2.122	0.427
1232.499	694.142	80.009	19.995	103.762	20.165	-2.107	0.602
1232.999	694.398	80.008	19.994	103.756	20.166	-2.139	0.604
1233.499	694.589	80.008	19.993	103.756	20.164	-1.993	0.492
1233.999	694.827	80.008	19.994	103.756	20.168	-2.274	0.438
1234.499	695.087	80.006	19.994	103.758	20.165	-2.088	0.464
1234.999	695.335	80.008	19.993	103.758	20.165	-2.115	0.503
1235.499	695.564	80.008	19.993	103.760	20.165	-2.074	0.492
1235.999	695.854	80.007	19.994	103.759	20.169	-2.344	0.498
1236.499	696.122	80.007	19.995	103.755	20.169	-2.340	0.538
1236.999	696.379	80.008	19.995	103.755	20.165	-2.098	0.541
1237.499	696.587	80.008	19.994	103.754	20.170	-2.408	0.495
1237.999	696.856	80.008	19.994	103.751	20.167	-2.231	0.471
1238.499	697.069	80.010	19.994	103.750	20.168	-2.306	0.480
1238.999	697.347	80.008	19.995	103.751	20.167	-2.237	0.486
1239.499	697.572	80.007	19.995	103.751	20.168	-2.282	0.497
1239.999	697.814	80.006	19.994	103.750	20.163	-1.952	0.485
1240.499	698.107	80.006	19.995	103.751	20.168	-2.300	0.501
1240.999	698.296	80.006	19.995	103.751	20.167	-2.226	0.509
1241.499	698.584	80.005	19.995	103.751	20.162	-1.897	0.480
1242.000	698.813	80.005	19.994	103.751	20.166	-2.141	0.497
1242.500	699.042	80.006	19.995	103.752	20.165	-2.053	0.488
1242.999	699.315	80.005	19.994	103.754	20.167	-2.190	0.480
1243.499	699.545	80.004	19.995	103.754	20.169	-2.325	0.502
1243.999	699.797	80.005	19.995	103.753	20.167	-2.212	0.493
1244.499	700.067	80.005	19.996	103.753	20.168	-2.302	0.502
1244.999	700.285	80.003	19.993	103.758	20.167	-2.254	0.505
1245.499	700.505	80.004	19.996	103.763	20.168	-2.319	0.463
1245.999	700.796	80.005	19.995	103.770	20.170	-2.402	0.475
1246.499	701.078	80.005	19.995	103.777	20.168	-2.258	0.542
1246.999	701.269	80.006	19.995	103.783	20.171	-2.486	0.523
1247.499	701.513	80.005	19.995	103.785	20.169	-2.361	0.454
1247.999	701.777	80.006	19.994	103.785	20.167	-2.237	0.471
1248.499	701.989	80.006	19.996	103.782	20.169	-2.374	0.492
1248.999	702.279	80.006	19.995	103.778	20.167	-2.244	0.489
1249.499	702.523	80.006	19.995	103.774	20.168	-2.282	0.518
1249.999	702.756	80.006	19.995	103.772	20.167	-2.229	0.506
1250.499	702.992	80.007	19.994	103.770	20.168	-2.317	0.473
1250.999	703.247	80.005	19.994	103.769	20.167	-2.238	0.479
1251.499	703.507	80.006	19.995	103.769	20.168	-2.293	0.503
1251.999	703.708	80.005	19.995	103.772	20.165	-2.094	0.488
1252.499	704.016	80.004	19.995	103.769	20.166	-2.131	0.485
1252.999	704.243	80.005	19.994	103.767	20.169	-2.332	0.522
1253.499	704.460	80.006	19.994	103.769	20.169	-2.360	0.490
1253.999	704.713	80.007	19.994	103.769	20.169	-2.353	0.457
1254.499	704.956	80.006	19.994	103.765	20.167	-2.214	0.483
1254.999	705.196	80.007	19.994	103.767	20.168	-2.306	0.490
1255.499	705.444	80.005	19.993	103.771	20.167	-2.221	0.485
1256.000	705.731	80.006	19.993	103.771	20.170	-2.428	0.511
1256.500	705.985	80.007	19.993	103.774	20.173	-2.634	0.538
1256.999	706.211	80.005	19.993	103.780	20.171	-2.520	0.511
1257.499	706.454	80.005	19.994	103.781	20.172	-2.587	0.475
1257.999	706.714	80.007	19.995	103.783	20.172	-2.546	0.486
1258.499	706.944	80.005	19.995	103.784	20.170	-2.454	0.496
1258.999	707.207	80.007	19.992	103.786	20.173	-2.649	0.491
1259.499	707.469	80.007	19.994	103.785	20.171	-2.478	0.509
1259.999	707.716	80.005	19.994	103.781	20.171	-2.465	0.517
1260.499	707.908	80.006	19.993	103.776	20.171	-2.469	0.474
1260.999	708.178	80.006	19.994	103.773	20.168	-2.261	0.450
1261.499	708.439	80.005	19.995	103.767	20.168	-2.309	0.496
1261.999	708.676	80.006	19.993	103.762	20.172	-2.533	0.515
1262.499	708.922	80.006	19.993	103.761	20.166	-2.178	0.491
1262.999	709.186	80.006	19.993	103.761	20.171	-2.471	0.496
1263.499	709.408	80.005	19.994	103.759	20.170	-2.441	0.498
1263.999	709.668	80.006	19.993	103.759	20.171	-2.510	0.484
1264.499	709.885	80.005	19.995	103.759	20.172	-2.546	0.480
1264.999	710.183	80.006	19.995	103.759	20.172	-2.574	0.496
1265.499	710.377	80.005	19.993	103.758	20.171	-2.518	0.504
1265.999	710.615	80.005	19.995	103.757	20.171	-2.475	0.462
1266.499	710.880	80.007	19.994	103.757	20.175	-2.737	0.467
1266.999	711.106	80.006	19.993	103.759	20.169	-2.379	0.497
1267.499	711.340	80.005	19.993	103.762	20.171	-2.482	0.475
1268.000	711.643	80.006	19.994	103.763	20.171	-2.465	0.499
1268.500	711.887	80.005	19.994	103.763	20.167	-2.253	0.542
1268.999	712.083	80.006	19.991	103.762	20.171	-2.478	0.493
1269.499	712.352	80.004	19.993	103.760	20.169	-2.385	0.453
1269.999	712.600	80.006	19.993	103.757	20.171	-2.461	0.491
1270.499	712.853	80.004	19.993	103.756	20.167	-2.248	0.509
1270.999	713.098	80.004	19.994	103.756	20.172	-2.551	0.499
1271.499	713.357	80.005	19.993	103.755	20.171	-2.516	0.501
1271.999	713.601	80.006	19.993	103.755	20.170	-2.454	0.504
1272.499	713.821	80.005	19.993	103.755	20.173	-2.654	0.484
1272.999	714.055	80.005	19.993	103.755	20.170	-2.435	0.459
1273.499	714.295	80.004	19.993	103.755	20.173	-2.645	0.464
1273.999	714.567	80.004	19.993	103.756	20.173	-2.615	0.493
1274.499	714.809	80.005	19.995	103.757	20.173	-2.658	0.513
1274.999	715.042	80.006	19.994	103.757	20.173	-2.638	0.494
1275.499	715.335	80.005	19.994	103.758	20.173	-2.645	0.501
1275.999	715.548	80.005	19.995	103.757	20.174	-2.669	0.516
1276.499	715.765	80.006	19.994	103.757	20.173	-2.634	0.469
1276.999	716.045	80.006	19.993	103.758	20.175	-2.765	0.463
1277.499	716.278	80.005	19.993	103.760	20.172	-2.581	0.504
1277.999	716.556	80.006	19.993	103.759	20.172	-2.568	0.512
1278.499	716.796	80.004	19.995	103.760	20.175	-2.733	0.515
1278.999	717.031	80.006	19.993	103.761	20.173	-2.638	0.497
1279.499	717.268	80.005	19.996	103.759	20.172	-2.557	0.473
1279.999	717.521	80.007	19.993	103.757	20.175	-2.735	0.481
1280.499	717.779	80.006	19.994	103.757	20.174	-2.697	0.501
1280.999	718.015	80.006	19.994	103.757	20.174	-2.697	0.503
1281.500	718.253	80.006	19.994	103.756	20.172	-2.551	0.484
1282.000	718.506	80.006	19.995	103.755	20.172	-2.574	0.482
1282.499	718.723	80.006	19.992	103.756	20.173	-2.626	0.481
1282.999	719.022	80.008	19.994	103.756	20.174	-2.724	0.493
1283.499	719.250	80.007	19.994	103.755	20.174	-2.682	0.521
1283.999	719.486	80.007	19.994	103.759	20.174	-2.688	0.496
1284.499	719.702	80.007	19.994	103.760	20.177	-2.911	0.459
1284.999	719.959	80.008	19.994	103.759	20.174	-2.729	0.462
1285.500	720.225	80.008	19.993	103.757	20.175	-2.787	0.497
1286.000	720.512	80.008	19.993	103.757	20.176	-2.816	0.538
1286.499	720.751	80.008	19.992	103.753	20.174	-2.716	0.540
1286.999	720.959	80.008	19.994	103.752	20.175	-2.765	0.487
1287.499	721.179	80.007	19.993	103.753	20.173	-2.615	0.437
1287.999	721.441	80.006	19.993	103.754	20.173	-2.643	0.455
1288.499	721.728	80.009	19.993	103.756	20.175	-2.761	0.516
1288.999	721.942	80.009	19.993	103.757	20.176	-2.834	0.524
1289.499	722.209	80.007	19.993	103.757	20.174	-2.669	0.491
1289.999	722.429	80.008	19.994	103.756	20.175	-2.767	0.484
1290.499	722.697	80.008	19.993	103.754	20.174	-2.709	0.487
1290.999	722.917	80.007	19.994	103.751	20.176	-2.863	0.488
1291.499	723.155	80.007	19.993	103.749	20.174	-2.682	0.473
1291.999	723.422	80.007	19.993	103.748	20.176	-2.799	0.481
1292.499	723.661	80.007	19.992	103.748	20.176	-2.802	0.506
1292.999	723.926	80.007	19.992	103.748	20.178	-2.954	0.505
1293.499	724.141	80.007	19.993	103.748	20.178	-2.934	0.492
1293.999	724.395	80.007	19.993	103.748	20.180	-3.123	0.474
1294.499	724.618	80.008	19.994	103.749	20.176	-2.861	0.473
1295.000	724.922	80.008	19.994	103.752	20.178	-2.977	0.502
1295.500	725.146	80.006	19.993	103.753	20.178	-2.962	0.527
1295.999	725.384	80.006	19.993	103.753	20.174	-2.698	0.495
1296.499	725.660	80.007	19.993	103.755	20.175	-2.789	0.489
1296.999	725.910	80.006	19.994	103.754	20.179	-3.025	0.520
1297.499	726.138	80.007	19.993	103.751	20.178	-2.980	0.502
1297.999	726.412	80.005	19.995	103.751	20.180	-3.129	0.490
1298.499	726.679	80.005	19.993	103.752	20.177	-2.881	0.521
1298.999	726.886	80.007	19.993	103.751	20.177	-2.915	0.508
1299.499	727.160	80.007	19.994	103.751	20.177	-2.911	0.478
1299.999	727.376	80.007	19.995	103.751	20.178	-2.960	0.486
1300.499	727.617	80.006	19.996	103.753	20.177	-2.900	0.474
1300.999	727.888	80.007	19.994	103.757	20.179	-3.037	0.484
1301.499	728.179	80.006	19.994	103.757	20.178	-2.935	0.537
1301.999	728.400	80.006	19.995	103.756	20.178	-2.980	0.537
1302.499	728.651	80.005	19.993	103.754	20.177	-2.896	0.493
1302.999	728.945	80.008	19.994	103.751	20.178	-2.967	0.509
1303.499	729.145	80.005	19.994	103.746	20.177	-2.885	0.519
1303.999	729.385	80.008	19.994	103.746	20.178	-2.965	0.467
1304.499	729.675	80.005	19.995	103.755	20.178	-2.962	0.485
1304.999	729.897	80.003	19.995	103.760	20.180	-3.102	0.521
1305.499	730.173	80.007	19.996	103.760	20.178	-2.967	0.505
1305.999	730.446	80.007	19.995	103.762	20.176	-2.855	0.524
1306.499	730.705	80.007	19.995	103.762	20.176	-2.812	0.541
1306.999	730.919	80.008	19.995	103.755	20.178	-2.965	0.502
1307.499	731.173	80.007	19.994	103.752	20.179	-3.050	0.470
1307.999	731.510	80.008	19.995	103.752	20.179	-3.035	0.530
1308.500	731.736	80.007	19.994	103.750	20.180	-3.116	0.577
1309.000	731.968	80.007	19.994	103.749	20.178	-2.949	0.510
1309.500	732.235	80.009	19.994	103.749	20.180	-3.131	0.479
1309.999	732.449	80.008	19.995	103.749	20.178	-2.992	0.490
1310.499	732.743	80.009	19.994	103.749	20.179	-3.044	0.494
1310.999	732.982	80.007	19.996	103.750	20.180	-3.117	0.521
1311.499	733.228	80.009	19.994	103.749	20.177	-2.898	0.509
1311.999	733.492	80.009	19.995	103.749	20.179	-3.065	0.498
1312.499	733.772	80.008	19.995	103.749	20.178	-2.992	0.527
1312.999	734.024	80.008	19.993	103.749	20.179	-3.035	0.538
1313.499	734.300	80.007	19.996	103.749	20.180	-3.108	0.530
1313.999	734.506	80.009	19.994	103.749	20.177	-2.909	0.505
1314.499	734.764	80.007	19.994	103.749	20.178	-2.994	0.473
1315.000	735.034	80.009	19.994	103.748	20.178	-2.996	0.496
1315.500	735.250	80.009	19.993	103.749	20.182	-3.205	0.507
1315.999	735.532	80.010	19.994	103.749	20.177	-2.892	0.492
1316.499	735.785	80.007	19.993	103.749	20.179	-3.055	0.517
1316.999	736.049	80.009	19.993	103.749	20.181	-3.138	0.526
1317.499	736.287	80.008	19.993	103.750	20.179	-3.040	0.510
1317.999	736.554	80.007	19.994	103.751	20.181	-3.172	0.504
1318.499	736.763	80.007	19.994	103.753	20.177	-2.932	0.490
1318.999	737.008	80.007	19.992	103.754	20.179	-3.007	0.465
1319.499	737.281	80.006	19.994	103.754	20.180	-3.074	0.486
1320.000	737.555	80.007	19.993	103.754	20.178	-2.992	0.532
1320.500	737.806	80.005	19.993	103.754	20.182	-3.267	0.536
1320.999	738.080	80.005	19.995	103.753	20.179	-3.014	0.525
1321.499	738.290	80.005	19.993	103.752	20.180	-3.082	0.505
1321.999	738.618	80.007	19.994	103.752	20.179	-3.042	0.511
1322.499	738.846	80.006	19.993	103.753	20.180	-3.074	0.547
1323.000	739.100	80.006	19.994	103.753	20.179	-3.025	0.519
1323.500	739.352	80.005	19.994	103.754	20.176	-2.842	0.494
1323.999	739.603	80.006	19.994	103.755	20.179	-3.067	0.504
1324.499	739.887	80.004	19.995	103.755	20.178	-2.943	0.519
1324.999	740.124	80.005	19.996	103.754	20.177	-2.866	0.528
1325.499	740.391	80.006	19.996	103.753	20.177	-2.898	0.513
1325.999	740.645	80.004	19.995	103.753	20.182	-3.230	0.512
1326.499	740.910	80.006	19.995	103.752	20.183	-3.324	0.520
1326.999	741.163	80.007	19.996	103.751	20.180	-3.082	0.519
1327.499	741.393	80.007	19.993	103.751	20.184	-3.404	0.501
1327.999	741.662	80.006	19.996	103.752	20.183	-3.318	0.491
1328.499	741.916	80.004	19.995	103.752	20.182	-3.219	0.511
1328.999	742.212	80.004	19.995	103.751	20.180	-3.091	0.537
1329.499	742.437	80.005	19.997	103.752	20.182	-3.224	0.536
1329.999	742.706	80.005	19.995	103.750	20.181	-3.198	0.507
1330.499	742.976	80.006	19.995	103.750	20.180	-3.074	0.516
1330.999	743.227	80.003	19.995	103.750	20.181	-3.166	0.530
1331.499	743.492	80.000	19.995	103.751	20.178	-2.941	0.519
