Sample ID:	C:\MCC\MCC Cal\Test\R13_Fiberglas_InsulationB_MCC_30K_min_220215_R1.txt
Sample Weight (mg):	4.74
Heating Rate (C/s):	0.5
Combustor Temp (C):	900
N2 Flow Rate (cc/min):	80
O2 Flow Rate (cc/min):	20
Calibration File:	C:\MCC\MCC Cal\Coeff1 JN10440_30_210304.txt.txt
T Correction Coefficients:	0	1.024463	0
Time Shift (s):	14
*
Time (s)	Temperature (C)	N2 flow rate (cc/min)	O2 flow rate (cc/min)	Flow Rate (cc/min)	Oxygen (%)	HRR (W/g)	Heating rate (C/s)
-0.001	111.714	80.010	19.994	103.704	20.001	0.002	0.034
0.499	111.704	80.008	19.994	103.702	20.003	-0.169	0.005
1.000	111.695	80.009	19.993	103.701	20.000	0.037	-0.022
1.499	111.696	80.010	19.992	103.701	19.999	0.125	-0.014
1.999	111.721	80.008	19.991	103.700	20.000	0.037	0.009
2.499	111.723	80.011	19.995	103.701	20.000	0.038	0.027
2.999	111.705	80.009	19.995	103.703	20.000	0.088	0.005
3.499	111.709	80.010	19.995	103.705	19.999	0.150	-0.016
3.999	111.698	80.010	19.995	103.706	19.998	0.229	-0.011
4.499	111.683	80.010	19.995	103.709	20.002	-0.082	-0.016
4.999	111.696	80.010	19.994	103.710	20.000	0.093	-0.014
5.499	111.739	80.012	19.994	103.709	19.999	0.104	0.027
5.999	111.722	80.010	19.994	103.707	19.998	0.220	0.041
6.499	111.724	80.011	19.993	103.707	19.997	0.286	0.006
6.999	111.697	80.011	19.994	103.705	19.999	0.126	-0.020
7.499	111.727	80.010	19.995	103.704	20.000	0.057	-0.011
7.999	111.706	80.011	19.994	103.704	19.999	0.105	0.006
8.499	111.682	80.010	19.993	103.704	19.997	0.244	-0.018
8.999	111.697	80.010	19.994	103.704	19.998	0.198	-0.027
9.499	111.732	80.010	19.995	103.709	19.997	0.240	0.021
9.999	111.696	80.010	19.994	103.709	19.998	0.191	0.024
10.500	111.674	80.010	19.994	103.709	19.999	0.145	-0.030
11.000	111.715	80.010	19.994	103.709	20.000	0.084	-0.019
11.499	111.688	80.010	19.994	103.708	19.999	0.116	0.017
11.999	111.709	80.009	19.995	103.707	20.002	-0.068	0.004
12.500	111.714	80.009	19.994	103.708	19.999	0.163	0.010
13.000	111.671	80.008	19.994	103.707	19.997	0.260	-0.006
13.499	111.710	80.008	19.995	103.710	20.003	-0.134	-0.021
13.999	111.714	80.009	19.994	103.713	19.999	0.160	0.020
14.499	111.697	80.009	19.994	103.713	19.997	0.272	0.015
14.999	111.709	80.008	19.994	103.711	19.996	0.349	-0.009
15.499	111.715	80.009	19.994	103.713	19.996	0.371	0.007
15.999	111.694	80.008	19.994	103.715	19.998	0.176	0.001
16.499	111.687	80.010	19.994	103.716	20.000	0.092	-0.022
16.999	111.689	80.010	19.994	103.721	19.995	0.376	-0.016
17.499	111.723	80.009	19.994	103.729	19.993	0.521	0.016
17.999	111.742	80.008	19.994	103.735	19.994	0.499	0.045
18.499	111.695	80.010	19.994	103.738	19.993	0.510	0.013
19.000	111.714	80.008	19.996	103.743	19.989	0.841	-0.028
19.500	111.718	80.010	19.994	103.751	19.992	0.613	-0.003
19.999	111.700	80.010	19.993	103.759	19.987	0.921	0.005
20.499	111.729	80.008	19.995	103.766	19.990	0.756	-0.001
20.999	111.741	80.009	19.993	103.778	19.989	0.850	0.026
21.499	111.744	80.008	19.994	103.790	19.990	0.738	0.028
21.999	111.774	80.008	19.993	103.798	19.989	0.795	0.024
22.499	111.771	80.009	19.994	103.801	19.986	1.031	0.030
23.000	111.781	80.009	19.994	103.802	19.985	1.101	0.017
23.500	111.804	80.010	19.994	103.803	19.989	0.828	0.020
23.999	111.876	80.009	19.994	103.804	19.985	1.064	0.064
24.499	111.891	80.010	19.994	103.804	19.982	1.320	0.091
24.999	111.878	80.011	19.993	103.809	19.983	1.259	0.044
25.499	111.892	80.009	19.993	103.816	19.980	1.453	0.002
25.999	111.945	80.010	19.993	103.818	19.983	1.255	0.034
26.499	111.966	80.010	19.995	103.819	19.982	1.272	0.070
26.999	111.993	80.011	19.995	103.822	19.979	1.490	0.061
27.499	112.047	80.011	19.994	103.827	19.979	1.498	0.064
27.999	112.077	80.011	19.994	103.834	19.977	1.670	0.083
28.499	112.084	80.011	19.994	103.842	19.980	1.415	0.061
28.999	112.116	80.011	19.993	103.846	19.976	1.674	0.038
29.499	112.155	80.011	19.995	103.844	19.977	1.617	0.055
29.999	112.186	80.011	19.994	103.846	19.974	1.814	0.071
30.499	112.238	80.011	19.994	103.847	19.977	1.652	0.076
30.999	112.245	80.010	19.994	103.844	19.975	1.783	0.071
31.499	112.337	80.011	19.994	103.848	19.975	1.803	0.079
31.999	112.353	80.012	19.993	103.851	19.974	1.871	0.104
32.499	112.384	80.010	19.994	103.851	19.971	2.020	0.077
32.999	112.462	80.010	19.995	103.849	19.974	1.847	0.078
33.499	112.486	80.010	19.994	103.851	19.975	1.809	0.106
33.999	112.565	80.010	19.994	103.851	19.975	1.807	0.103
34.499	112.604	80.009	19.995	103.850	19.974	1.838	0.111
35.000	112.664	80.010	19.995	103.848	19.977	1.662	0.109
35.500	112.708	80.009	19.994	103.845	19.976	1.721	0.101
35.999	112.765	80.009	19.994	103.842	19.972	1.967	0.102
36.500	112.807	80.009	19.994	103.837	19.977	1.642	0.100
37.000	112.876	80.009	19.994	103.838	19.972	1.952	0.105
37.499	112.906	80.010	19.994	103.839	19.976	1.693	0.105
37.999	112.965	80.008	19.995	103.844	19.973	1.928	0.094
38.499	113.030	80.007	19.994	103.847	19.971	2.063	0.106
38.999	113.076	80.009	19.993	103.850	19.973	1.905	0.117
39.499	113.124	80.007	19.994	103.851	19.971	2.028	0.103
39.999	113.193	80.008	19.994	103.855	19.971	2.026	0.106
40.499	113.294	80.007	19.995	103.858	19.968	2.224	0.143
40.999	113.358	80.007	19.995	103.866	19.969	2.191	0.167
41.499	113.406	80.006	19.995	103.876	19.972	1.960	0.138
41.999	113.479	80.006	19.994	103.885	19.970	2.149	0.117
42.499	113.570	80.007	19.994	103.892	19.968	2.254	0.143
42.999	113.605	80.006	19.994	103.899	19.967	2.296	0.145
43.499	113.714	80.007	19.994	103.904	19.966	2.386	0.135
43.999	113.740	80.007	19.995	103.906	19.967	2.294	0.139
44.499	113.837	80.006	19.995	103.911	19.967	2.331	0.129
44.999	113.920	80.007	19.995	103.916	19.965	2.452	0.152
45.499	114.008	80.007	19.994	103.917	19.966	2.384	0.176
45.999	114.055	80.006	19.995	103.916	19.964	2.559	0.153
46.500	114.144	80.006	19.994	103.919	19.962	2.660	0.135
47.000	114.264	80.006	19.995	103.915	19.963	2.616	0.173
47.500	114.382	80.007	19.995	103.913	19.962	2.680	0.223
48.000	114.449	80.007	19.994	103.914	19.960	2.816	0.211
48.500	114.550	80.007	19.995	103.916	19.961	2.755	0.177
49.000	114.648	80.008	19.995	103.918	19.959	2.871	0.184
49.500	114.739	80.009	19.994	103.925	19.958	2.941	0.194
50.000	114.795	80.006	19.997	103.929	19.956	3.047	0.168
50.499	114.931	80.008	19.994	103.933	19.961	2.728	0.169
50.999	115.019	80.008	19.995	103.934	19.960	2.811	0.208
51.499	115.131	80.007	19.994	103.935	19.961	2.761	0.212
51.999	115.247	80.008	19.993	103.934	19.963	2.627	0.214
52.499	115.320	80.007	19.994	103.933	19.959	2.839	0.208
52.999	115.414	80.008	19.994	103.933	19.958	2.927	0.178
53.499	115.507	80.007	19.993	103.934	19.958	2.920	0.177
53.999	115.640	80.009	19.994	103.934	19.956	3.058	0.207
54.499	115.760	80.007	19.994	103.934	19.953	3.297	0.240
54.999	115.885	80.007	19.994	103.937	19.957	3.014	0.250
55.499	115.985	80.008	19.993	103.939	19.954	3.194	0.235
55.999	116.117	80.007	19.994	103.940	19.954	3.214	0.228
56.499	116.218	80.008	19.994	103.939	19.954	3.238	0.232
56.999	116.347	80.008	19.994	103.939	19.955	3.179	0.231
57.499	116.438	80.009	19.993	103.940	19.953	3.254	0.225
57.999	116.584	80.009	19.993	103.939	19.954	3.214	0.229
58.499	116.678	80.007	19.994	103.940	19.953	3.253	0.238
58.999	116.821	80.009	19.992	103.941	19.952	3.341	0.238
59.499	116.938	80.008	19.993	103.942	19.951	3.422	0.248
59.999	117.052	80.009	19.994	103.941	19.951	3.436	0.245
60.500	117.192	80.008	19.993	103.942	19.951	3.420	0.243
61.000	117.348	80.008	19.993	103.942	19.950	3.501	0.275
61.499	117.472	80.007	19.993	103.945	19.953	3.287	0.288
61.999	117.572	80.008	19.993	103.948	19.949	3.554	0.252
62.499	117.704	80.007	19.994	103.955	19.949	3.561	0.228
62.999	117.817	80.008	19.993	103.960	19.949	3.543	0.238
63.499	117.951	80.008	19.992	103.966	19.950	3.475	0.246
63.999	118.123	80.008	19.993	103.970	19.945	3.839	0.277
64.499	118.259	80.008	19.994	103.973	19.947	3.690	0.307
64.999	118.373	80.007	19.992	103.972	19.947	3.694	0.279
65.499	118.565	80.008	19.994	103.975	19.946	3.756	0.278
65.999	118.699	80.007	19.993	103.976	19.946	3.791	0.316
66.499	118.873	80.007	19.993	103.976	19.947	3.703	0.317
66.999	119.019	80.007	19.993	103.977	19.948	3.655	0.314
67.499	119.127	80.006	19.994	103.977	19.948	3.644	0.287
67.999	119.280	80.008	19.994	103.978	19.948	3.642	0.258
68.499	119.431	80.007	19.994	103.977	19.948	3.607	0.282
68.999	119.580	80.007	19.993	103.978	19.947	3.692	0.302
69.499	119.754	80.008	19.993	103.979	19.948	3.600	0.312
69.999	119.871	80.007	19.993	103.979	19.950	3.480	0.307
70.500	120.047	80.007	19.994	103.978	19.948	3.629	0.292
70.999	120.207	80.008	19.993	103.978	19.952	3.355	0.315
71.499	120.364	80.007	19.995	103.977	19.951	3.445	0.327
71.999	120.508	80.008	19.994	103.977	19.947	3.710	0.309
72.499	120.715	80.008	19.993	103.978	19.947	3.666	0.326
72.999	120.876	80.007	19.994	103.978	19.947	3.662	0.360
73.499	121.017	80.007	19.994	103.978	19.946	3.747	0.335
73.999	121.213	80.006	19.994	103.978	19.944	3.901	0.320
74.499	121.366	80.007	19.994	103.978	19.945	3.820	0.343
74.999	121.587	80.008	19.993	103.977	19.945	3.822	0.361
75.499	121.749	80.007	19.993	103.977	19.943	3.956	0.379
75.999	121.881	80.007	19.995	103.978	19.944	3.885	0.339
76.499	122.051	80.006	19.995	103.978	19.945	3.855	0.298
76.999	122.269	80.008	19.994	103.978	19.946	3.793	0.344
77.499	122.434	80.008	19.993	103.978	19.946	3.743	0.385
77.999	122.626	80.007	19.994	103.978	19.945	3.811	0.370
78.499	122.767	80.008	19.994	103.978	19.948	3.633	0.346
78.999	122.986	80.009	19.995	103.978	19.944	3.890	0.347
79.499	123.169	80.008	19.993	103.978	19.945	3.833	0.381
79.999	123.356	80.008	19.993	103.978	19.950	3.471	0.385
80.499	123.552	80.008	19.993	103.978	19.946	3.745	0.377
80.999	123.746	80.009	19.993	103.977	19.949	3.557	0.387
81.499	123.860	80.009	19.994	103.975	19.945	3.839	0.349
81.999	124.075	80.009	19.993	103.975	19.948	3.609	0.318
82.499	124.265	80.009	19.993	103.975	19.948	3.659	0.367
82.999	124.496	80.009	19.994	103.975	19.948	3.631	0.413
83.499	124.687	80.010	19.994	103.976	19.946	3.760	0.422
83.999	124.866	80.009	19.994	103.977	19.945	3.815	0.396
84.499	125.076	80.011	19.993	103.976	19.948	3.624	0.380
84.999	125.268	80.009	19.993	103.975	19.947	3.708	0.396
85.499	125.439	80.009	19.992	103.974	19.947	3.682	0.382
85.999	125.640	80.010	19.993	103.974	19.950	3.471	0.367
86.499	125.818	80.009	19.994	103.975	19.945	3.811	0.375
86.999	126.002	80.011	19.994	103.976	19.948	3.607	0.371
87.499	126.205	80.009	19.994	103.977	19.948	3.659	0.375
87.999	126.405	80.010	19.993	103.977	19.946	3.771	0.394
88.499	126.618	80.009	19.993	103.977	19.948	3.642	0.408
88.999	126.780	80.009	19.994	103.975	19.945	3.833	0.394
89.499	126.993	80.009	19.994	103.976	19.946	3.767	0.375
89.999	127.178	80.009	19.993	103.976	19.946	3.759	0.387
90.499	127.423	80.010	19.995	103.976	19.945	3.818	0.414
90.999	127.635	80.009	19.994	103.976	19.946	3.785	0.443
91.499	127.792	80.009	19.993	103.976	19.945	3.800	0.413
91.999	127.988	80.009	19.993	103.976	19.946	3.752	0.361
92.499	128.218	80.009	19.993	103.975	19.945	3.818	0.390
92.999	128.409	80.009	19.992	103.976	19.946	3.769	0.424
93.499	128.628	80.009	19.993	103.976	19.945	3.855	0.416
93.999	128.812	80.011	19.993	103.976	19.946	3.771	0.406
94.499	129.043	80.008	19.993	103.977	19.945	3.804	0.409
94.999	129.251	80.009	19.992	103.977	19.946	3.778	0.427
95.499	129.422	80.009	19.992	103.977	19.945	3.806	0.409
95.999	129.641	80.010	19.994	103.978	19.944	3.874	0.384
96.499	129.848	80.008	19.993	103.978	19.943	3.951	0.408
96.999	130.071	80.008	19.994	103.977	19.943	3.947	0.428
97.499	130.276	80.010	19.994	103.978	19.944	3.929	0.429
97.999	130.503	80.010	19.993	103.976	19.947	3.681	0.430
98.499	130.683	80.009	19.994	103.976	19.945	3.857	0.420
98.999	130.912	80.010	19.993	103.975	19.943	3.962	0.408
99.499	131.102	80.010	19.992	103.975	19.946	3.784	0.414
99.999	131.350	80.008	19.993	103.973	19.945	3.809	0.429
100.499	131.553	80.009	19.994	103.974	19.942	4.015	0.445
100.999	131.786	80.009	19.994	103.972	19.943	3.956	0.443
101.499	131.981	80.010	19.993	103.972	19.943	3.971	0.432
101.999	132.221	80.009	19.994	103.972	19.943	3.960	0.432
102.499	132.428	80.009	19.994	103.973	19.943	3.936	0.441
103.000	132.617	80.007	19.993	103.974	19.945	3.835	0.421
103.500	132.833	80.010	19.993	103.976	19.942	4.041	0.401
103.999	133.059	80.008	19.993	103.977	19.942	4.019	0.424
104.499	133.298	80.009	19.993	103.977	19.942	4.013	0.453
104.999	133.481	80.009	19.994	103.977	19.944	3.892	0.443
105.499	133.713	80.010	19.994	103.978	19.944	3.897	0.419
105.999	133.965	80.010	19.994	103.977	19.941	4.085	0.449
106.499	134.167	80.010	19.994	103.977	19.939	4.215	0.468
106.999	134.399	80.011	19.994	103.976	19.941	4.123	0.444
107.499	134.579	80.011	19.994	103.976	19.947	3.723	0.424
107.999	134.850	80.009	19.994	103.975	19.945	3.811	0.431
108.499	135.059	80.010	19.994	103.975	19.945	3.837	0.465
108.999	135.278	80.009	19.994	103.976	19.944	3.907	0.454
109.499	135.469	80.011	19.994	103.977	19.944	3.910	0.419
109.999	135.719	80.012	19.993	103.977	19.942	4.061	0.426
110.499	135.929	80.009	19.994	103.977	19.943	3.945	0.451
110.999	136.136	80.010	19.994	103.977	19.944	3.932	0.438
111.499	136.356	80.011	19.993	103.977	19.942	4.004	0.422
111.999	136.601	80.010	19.994	103.977	19.943	3.986	0.446
112.499	136.838	80.011	19.994	103.977	19.944	3.886	0.474
112.999	137.069	80.009	19.994	103.976	19.946	3.763	0.475
113.499	137.281	80.010	19.994	103.976	19.944	3.883	0.456
113.999	137.499	80.010	19.994	103.976	19.945	3.850	0.436
114.499	137.750	80.011	19.994	103.975	19.945	3.850	0.449
114.999	137.984	80.009	19.993	103.974	19.947	3.660	0.477
115.499	138.178	80.009	19.994	103.973	19.943	3.938	0.456
116.000	138.403	80.010	19.994	103.974	19.946	3.778	0.423
116.500	138.686	80.009	19.994	103.974	19.942	4.057	0.464
116.999	138.871	80.009	19.994	103.974	19.943	3.940	0.488
117.499	139.117	80.009	19.992	103.976	19.945	3.807	0.449
117.999	139.363	80.008	19.993	103.977	19.942	4.039	0.462
118.499	139.570	80.008	19.994	103.977	19.945	3.851	0.473
118.999	139.785	80.007	19.993	103.978	19.945	3.811	0.437
119.499	140.065	80.008	19.993	103.978	19.944	3.886	0.458
119.999	140.265	80.010	19.994	103.978	19.944	3.870	0.487
120.499	140.495	80.008	19.994	103.977	19.948	3.602	0.455
120.999	140.686	80.008	19.996	103.977	19.946	3.747	0.426
121.499	141.010	80.009	19.993	103.978	19.946	3.776	0.468
121.999	141.249	80.007	19.994	103.978	19.946	3.752	0.539
122.499	141.495	80.007	19.994	103.978	19.946	3.732	0.524
122.999	141.712	80.009	19.994	103.980	19.943	3.954	0.474
123.499	141.935	80.008	19.993	103.979	19.944	3.899	0.452
123.999	142.166	80.007	19.994	103.979	19.946	3.758	0.447
124.499	142.427	80.009	19.993	103.980	19.944	3.890	0.473
124.999	142.657	80.007	19.994	103.980	19.945	3.859	0.491
125.499	142.908	80.007	19.994	103.977	19.946	3.776	0.486
125.999	143.157	80.008	19.994	103.975	19.946	3.783	0.490
126.499	143.375	80.007	19.994	103.974	19.946	3.783	0.484
126.999	143.608	80.008	19.994	103.973	19.945	3.809	0.459
127.499	143.931	80.007	19.995	103.971	19.947	3.684	0.503
127.999	144.169	80.008	19.994	103.973	19.944	3.875	0.559
128.499	144.397	80.008	19.993	103.976	19.941	4.121	0.513
129.000	144.606	80.007	19.993	103.976	19.945	3.827	0.452
129.500	144.882	80.009	19.993	103.974	19.943	3.985	0.461
130.000	145.108	80.008	19.994	103.976	19.943	3.950	0.493
130.499	145.345	80.008	19.994	103.977	19.945	3.799	0.483
130.999	145.587	80.007	19.994	103.975	19.945	3.812	0.471
131.499	145.847	80.008	19.994	103.975	19.947	3.726	0.491
131.999	146.084	80.008	19.994	103.977	19.949	3.577	0.499
132.499	146.314	80.009	19.994	103.977	19.948	3.621	0.481
132.999	146.547	80.008	19.994	103.977	19.948	3.656	0.465
133.499	146.811	80.009	19.993	103.978	19.947	3.713	0.480
133.999	147.046	80.006	19.994	103.976	19.947	3.670	0.498
134.499	147.278	80.007	19.996	103.973	19.948	3.656	0.483
134.999	147.504	80.008	19.995	103.971	19.947	3.667	0.463
135.499	147.763	80.007	19.995	103.971	19.947	3.717	0.472
135.999	148.009	80.008	19.995	103.971	19.949	3.575	0.495
136.499	148.230	80.007	19.994	103.973	19.948	3.614	0.486
136.999	148.515	80.008	19.995	103.974	19.948	3.633	0.486
137.499	148.714	80.007	19.995	103.972	19.947	3.667	0.495
137.999	149.002	80.007	19.994	103.966	19.950	3.460	0.486
138.499	149.244	80.008	19.995	103.962	19.949	3.531	0.509
138.999	149.522	80.007	19.994	103.958	19.946	3.777	0.525
139.499	149.753	80.008	19.995	103.959	19.947	3.676	0.514
139.999	149.974	80.007	19.995	103.959	19.944	3.873	0.480
140.499	150.237	80.008	19.995	103.959	19.948	3.628	0.468
140.999	150.476	80.009	19.994	103.957	19.949	3.564	0.493
141.499	150.701	80.008	19.995	103.961	19.948	3.593	0.483
141.999	150.945	80.009	19.994	103.960	19.949	3.582	0.467
142.499	151.203	80.009	19.995	103.960	19.949	3.529	0.486
142.999	151.440	80.008	19.994	103.961	19.947	3.666	0.499
143.499	151.683	80.007	19.995	103.962	19.948	3.641	0.487
143.999	151.960	80.007	19.995	103.957	19.947	3.685	0.500
144.499	152.198	80.010	19.994	103.952	19.950	3.461	0.518
144.999	152.481	80.007	19.994	103.949	19.946	3.733	0.518
145.499	152.692	80.007	19.993	103.949	19.948	3.652	0.507
145.999	152.958	80.009	19.995	103.953	19.952	3.325	0.486
146.499	153.222	80.008	19.995	103.957	19.951	3.411	0.503
146.999	153.453	80.009	19.995	103.962	19.950	3.479	0.512
147.499	153.707	80.008	19.994	103.968	19.950	3.483	0.490
147.999	153.939	80.009	19.994	103.968	19.950	3.503	0.486
148.499	154.205	80.009	19.995	103.964	19.949	3.580	0.492
148.999	154.419	80.009	19.994	103.965	19.949	3.568	0.489
149.499	154.684	80.009	19.993	103.961	19.949	3.529	0.479
149.999	154.914	80.008	19.993	103.956	19.949	3.536	0.487
150.499	155.181	80.008	19.994	103.954	19.949	3.529	0.497
150.999	155.434	80.008	19.994	103.951	19.952	3.356	0.509
151.499	155.712	80.008	19.994	103.946	19.948	3.643	0.525
151.999	155.932	80.008	19.995	103.944	19.948	3.597	0.514
152.499	156.189	80.008	19.993	103.943	19.952	3.382	0.487
152.999	156.414	80.008	19.993	103.941	19.951	3.452	0.479
153.499	156.672	80.008	19.994	103.941	19.949	3.582	0.482
153.999	156.943	80.007	19.994	103.940	19.950	3.490	0.506
154.499	157.160	80.007	19.994	103.940	19.952	3.382	0.509
154.999	157.422	80.009	19.993	103.939	19.947	3.659	0.483
155.499	157.674	80.008	19.993	103.942	19.951	3.441	0.496
155.999	157.938	80.008	19.993	103.944	19.948	3.591	0.515
156.499	158.153	80.007	19.993	103.947	19.949	3.554	0.497
156.999	158.412	80.009	19.993	103.947	19.950	3.508	0.476
157.499	158.696	80.009	19.993	103.950	19.951	3.420	0.509
157.999	158.917	80.008	19.993	103.948	19.949	3.523	0.524
158.499	159.160	80.008	19.994	103.946	19.952	3.317	0.484
158.999	159.422	80.010	19.994	103.947	19.952	3.367	0.485
159.499	159.677	80.009	19.993	103.950	19.947	3.701	0.512
159.999	159.922	80.009	19.994	103.952	19.949	3.531	0.509
160.499	160.189	80.009	19.994	103.953	19.952	3.350	0.506
160.999	160.438	80.010	19.994	103.952	19.949	3.542	0.514
161.499	160.677	80.010	19.993	103.952	19.953	3.275	0.502
161.999	160.937	80.010	19.994	103.949	19.951	3.424	0.494
162.499	161.159	80.011	19.993	103.947	19.948	3.598	0.490
162.999	161.414	80.010	19.992	103.947	19.947	3.679	0.480
163.499	161.643	80.010	19.994	103.946	19.953	3.306	0.480
163.999	161.942	80.010	19.995	103.944	19.952	3.367	0.506
164.499	162.163	80.009	19.993	103.944	19.950	3.463	0.524
164.999	162.465	80.010	19.994	103.941	19.947	3.679	0.521
165.499	162.658	80.011	19.993	103.940	19.948	3.610	0.510
165.999	162.912	80.011	19.993	103.941	19.950	3.503	0.472
166.499	163.179	80.010	19.994	103.941	19.952	3.334	0.484
166.999	163.416	80.010	19.993	103.940	19.953	3.272	0.512
167.499	163.671	80.009	19.994	103.940	19.952	3.356	0.498
167.999	163.941	80.010	19.993	103.940	19.948	3.643	0.509
168.499	164.175	80.010	19.994	103.939	19.951	3.424	0.515
168.999	164.416	80.010	19.994	103.940	19.950	3.453	0.490
169.499	164.719	80.011	19.994	103.941	19.951	3.391	0.509
169.999	164.950	80.010	19.993	103.941	19.953	3.253	0.539
170.499	165.198	80.009	19.993	103.940	19.953	3.262	0.506
170.999	165.474	80.010	19.993	103.941	19.948	3.615	0.501
171.499	165.717	80.010	19.993	103.940	19.952	3.317	0.522
171.999	165.964	80.010	19.993	103.939	19.953	3.273	0.505
172.499	166.241	80.011	19.993	103.939	19.951	3.418	0.507
172.999	166.484	80.010	19.993	103.940	19.952	3.354	0.522
173.499	166.707	80.011	19.993	103.939	19.950	3.468	0.493
173.999	167.006	80.009	19.994	103.940	19.952	3.349	0.495
174.499	167.244	80.010	19.994	103.940	19.950	3.481	0.530
174.999	167.450	80.009	19.993	103.940	19.951	3.446	0.491
175.499	167.729	80.008	19.993	103.941	19.951	3.448	0.465
175.999	167.960	80.010	19.993	103.940	19.950	3.483	0.497
176.499	168.244	80.008	19.992	103.941	19.954	3.233	0.512
176.999	168.482	80.010	19.994	103.940	19.950	3.485	0.518
177.499	168.733	80.011	19.993	103.941	19.953	3.290	0.505
177.999	169.009	80.010	19.993	103.941	19.950	3.499	0.508
178.499	169.234	80.010	19.993	103.941	19.952	3.378	0.514
178.999	169.489	80.009	19.993	103.941	19.947	3.670	0.491
179.499	169.744	80.010	19.994	103.941	19.952	3.343	0.495
179.999	169.972	80.010	19.993	103.940	19.951	3.391	0.496
180.499	170.252	80.010	19.994	103.940	19.949	3.573	0.496
180.999	170.507	80.010	19.993	103.940	19.949	3.556	0.522
181.499	170.769	80.011	19.993	103.940	19.951	3.395	0.526
181.999	170.966	80.010	19.994	103.940	19.953	3.282	0.488
182.499	171.243	80.012	19.993	103.940	19.950	3.472	0.466
182.999	171.497	80.011	19.993	103.940	19.949	3.578	0.502
183.499	171.765	80.010	19.992	103.940	19.953	3.270	0.526
183.999	172.021	80.010	19.993	103.940	19.952	3.349	0.523
184.500	172.248	80.011	19.993	103.939	19.948	3.613	0.504
185.000	172.490	80.011	19.992	103.940	19.949	3.531	0.476
185.499	172.758	80.010	19.993	103.940	19.950	3.464	0.490
185.999	172.997	80.011	19.993	103.940	19.948	3.602	0.509
186.499	173.266	80.010	19.993	103.940	19.948	3.646	0.508
186.999	173.471	80.011	19.993	103.940	19.951	3.431	0.491
187.499	173.762	80.012	19.991	103.940	19.949	3.530	0.485
187.999	173.959	80.012	19.992	103.940	19.950	3.501	0.492
188.499	174.249	80.011	19.992	103.940	19.950	3.508	0.488
188.999	174.482	80.011	19.993	103.939	19.951	3.407	0.505
189.499	174.750	80.011	19.992	103.939	19.951	3.404	0.512
189.999	174.985	80.011	19.993	103.939	19.951	3.426	0.502
190.499	175.275	80.012	19.993	103.939	19.952	3.367	0.514
190.999	175.470	80.011	19.992	103.939	19.955	3.170	0.505
191.499	175.761	80.011	19.993	103.939	19.954	3.234	0.485
191.999	175.956	80.011	19.994	103.940	19.953	3.269	0.486
192.499	176.257	80.011	19.993	103.938	19.954	3.225	0.492
192.999	176.451	80.011	19.993	103.939	19.953	3.260	0.496
193.499	176.751	80.011	19.991	103.938	19.952	3.372	0.495
193.999	176.962	80.011	19.993	103.938	19.953	3.304	0.502
194.499	177.244	80.011	19.992	103.938	19.955	3.128	0.501
194.999	177.472	80.011	19.993	103.939	19.953	3.252	0.501
195.499	177.698	80.010	19.993	103.939	19.952	3.365	0.482
195.999	177.956	80.011	19.993	103.940	19.953	3.262	0.469
196.499	178.239	80.009	19.993	103.939	19.953	3.273	0.513
196.999	178.463	80.009	19.994	103.937	19.954	3.200	0.524
197.499	178.714	80.010	19.994	103.932	19.951	3.444	0.491
197.999	178.936	80.011	19.993	103.928	19.953	3.312	0.474
198.499	179.222	80.010	19.993	103.927	19.952	3.328	0.491
198.999	179.444	80.008	19.994	103.927	19.951	3.394	0.509
199.499	179.676	80.008	19.994	103.926	19.953	3.293	0.481
199.999	179.930	80.009	19.995	103.930	19.950	3.513	0.470
200.499	180.202	80.007	19.993	103.933	19.952	3.324	0.506
201.000	180.434	80.009	19.994	103.931	19.953	3.280	0.515
201.499	180.703	80.008	19.993	103.931	19.953	3.268	0.502
201.999	180.938	80.008	19.993	103.932	19.955	3.115	0.502
202.499	181.198	80.009	19.994	103.930	19.950	3.495	0.500
202.999	181.460	80.007	19.995	103.929	19.950	3.479	0.509
203.499	181.697	80.009	19.994	103.931	19.949	3.563	0.511
203.999	181.976	80.008	19.994	103.928	19.951	3.414	0.507
204.499	182.211	80.009	19.994	103.924	19.952	3.359	0.515
204.999	182.464	80.009	19.993	103.920	19.951	3.410	0.501
205.499	182.744	80.008	19.994	103.919	19.952	3.342	0.511
205.999	182.948	80.009	19.996	103.918	19.952	3.379	0.509
206.499	183.233	80.009	19.993	103.920	19.951	3.396	0.486
206.999	183.470	80.008	19.996	103.925	19.951	3.442	0.505
207.499	183.690	80.009	19.995	103.932	19.951	3.431	0.489
207.999	183.974	80.007	19.995	103.934	19.950	3.477	0.480
208.499	184.197	80.009	19.995	103.934	19.954	3.207	0.506
208.999	184.410	80.009	19.994	103.929	19.951	3.436	0.472
209.499	184.678	80.009	19.995	103.926	19.955	3.131	0.458
209.999	184.941	80.008	19.995	103.922	19.954	3.243	0.506
210.499	185.169	80.009	19.994	103.922	19.951	3.427	0.511
210.999	185.470	80.008	19.993	103.922	19.954	3.190	0.510
211.499	185.695	80.009	19.994	103.927	19.955	3.137	0.528
212.000	185.968	80.009	19.994	103.930	19.954	3.242	0.512
212.499	186.178	80.010	19.993	103.934	19.955	3.170	0.491
212.999	186.448	80.009	19.994	103.933	19.954	3.201	0.481
213.500	186.695	80.009	19.993	103.931	19.953	3.293	0.498
213.999	186.959	80.008	19.993	103.928	19.954	3.231	0.515
214.499	187.254	80.008	19.994	103.926	19.954	3.223	0.535
214.999	187.437	80.008	19.994	103.919	19.953	3.266	0.518
215.499	187.739	80.009	19.994	103.913	19.955	3.126	0.482
215.999	187.974	80.008	19.995	103.913	19.956	3.098	0.511
216.500	188.206	80.009	19.994	103.916	19.952	3.357	0.502
217.000	188.438	80.009	19.994	103.919	19.954	3.214	0.466
217.500	188.691	80.008	19.994	103.924	19.956	3.079	0.474
217.999	188.933	80.009	19.994	103.928	19.957	3.024	0.490
218.499	189.159	80.009	19.995	103.926	19.956	3.074	0.482
218.999	189.423	80.009	19.993	103.920	19.955	3.124	0.479
219.499	189.680	80.008	19.994	103.916	19.955	3.173	0.505
219.999	189.894	80.009	19.994	103.915	19.956	3.063	0.496
220.499	190.149	80.010	19.994	103.912	19.955	3.131	0.470
220.999	190.427	80.009	19.994	103.917	19.955	3.111	0.501
221.499	190.696	80.009	19.993	103.920	19.958	2.960	0.540
221.999	190.903	80.009	19.994	103.920	19.954	3.214	0.511
222.500	191.214	80.009	19.995	103.922	19.955	3.146	0.497
222.999	191.468	80.008	19.995	103.928	19.956	3.102	0.542
223.499	191.698	80.007	19.994	103.927	19.959	2.903	0.524
223.999	191.923	80.009	19.995	103.931	19.956	3.092	0.469
224.499	192.183	80.008	19.996	103.934	19.956	3.052	0.470
224.999	192.444	80.009	19.994	103.935	19.957	3.001	0.503
225.499	192.686	80.008	19.995	103.931	19.955	3.171	0.512
225.999	192.891	80.007	19.996	103.926	19.956	3.052	0.476
226.499	193.194	80.007	19.994	103.921	19.956	3.085	0.478
226.999	193.420	80.009	19.995	103.915	19.954	3.221	0.518
227.499	193.687	80.009	19.995	103.909	19.956	3.085	0.511
227.999	193.958	80.007	19.994	103.906	19.955	3.144	0.515
228.499	194.157	80.007	19.995	103.906	19.956	3.054	0.504
228.999	194.412	80.007	19.995	103.909	19.953	3.256	0.462
229.499	194.687	80.007	19.995	103.912	19.955	3.140	0.492
229.999	194.936	80.008	19.996	103.914	19.957	3.017	0.527
230.499	195.150	80.007	19.994	103.916	19.957	3.030	0.494
230.999	195.389	80.008	19.994	103.918	19.955	3.120	0.458
231.499	195.646	80.008	19.995	103.913	19.956	3.082	0.474
231.999	195.918	80.007	19.996	103.909	19.958	2.938	0.513
232.499	196.144	80.007	19.995	103.912	19.956	3.047	0.514
232.999	196.437	80.008	19.995	103.912	19.954	3.241	0.508
233.499	196.620	80.006	19.994	103.911	19.956	3.109	0.498
233.999	196.866	80.007	19.995	103.914	19.955	3.111	0.453
234.499	197.112	80.006	19.995	103.913	19.956	3.091	0.460
234.999	197.372	80.007	19.994	103.909	19.953	3.289	0.499
235.499	197.613	80.007	19.995	103.912	19.955	3.168	0.504
235.999	197.881	80.008	19.994	103.911	19.956	3.078	0.505
236.499	198.109	80.007	19.994	103.912	19.953	3.289	0.502
236.999	198.373	80.007	19.994	103.913	19.955	3.135	0.494
237.499	198.649	80.007	19.994	103.918	19.955	3.171	0.516
237.999	198.847	80.008	19.994	103.915	19.954	3.191	0.507
238.499	199.086	80.007	19.995	103.914	19.958	2.918	0.455
238.999	199.358	80.008	19.994	103.912	19.958	2.964	0.474
239.499	199.585	80.007	19.993	103.911	19.955	3.114	0.505
239.999	199.859	80.008	19.994	103.907	19.953	3.287	0.500
240.499	200.085	80.008	19.994	103.910	19.956	3.095	0.501
240.999	200.321	80.008	19.994	103.911	19.957	3.030	0.481
241.499	200.604	80.009	19.993	103.914	19.958	2.946	0.490
241.999	200.848	80.008	19.993	103.915	19.959	2.872	0.523
242.499	201.088	80.009	19.994	103.917	19.958	2.916	0.506
242.999	201.322	80.009	19.992	103.914	19.960	2.806	0.479
243.499	201.534	80.009	19.993	103.913	19.955	3.133	0.460
243.999	201.810	80.010	19.993	103.914	19.954	3.184	0.468
244.499	202.055	80.011	19.993	103.915	19.956	3.048	0.505
244.999	202.291	80.009	19.993	103.913	19.954	3.221	0.501
245.499	202.546	80.010	19.994	103.913	19.953	3.272	0.486
245.999	202.786	80.010	19.991	103.915	19.956	3.079	0.492
246.499	203.046	80.011	19.993	103.914	19.957	3.030	0.498
246.999	203.329	80.010	19.993	103.913	19.956	3.059	0.522
247.499	203.542	80.010	19.995	103.911	19.957	3.035	0.520
247.999	203.796	80.010	19.994	103.909	19.956	3.061	0.481
248.499	203.994	80.010	19.993	103.906	19.956	3.085	0.459
248.999	204.256	80.010	19.993	103.903	19.957	2.993	0.456
249.499	204.481	80.009	19.993	103.902	19.957	3.039	0.474
249.999	204.757	80.009	19.994	103.907	19.957	3.023	0.494
250.499	205.003	80.011	19.994	103.909	19.954	3.223	0.511
250.999	205.273	80.008	19.993	103.914	19.956	3.041	0.519
251.499	205.498	80.010	19.993	103.919	19.955	3.149	0.506
251.999	205.758	80.010	19.994	103.919	19.956	3.061	0.490
252.499	205.983	80.009	19.994	103.917	19.954	3.193	0.485
252.999	206.253	80.011	19.993	103.916	19.956	3.067	0.490
253.499	206.492	80.009	19.993	103.912	19.956	3.107	0.502
253.999	206.696	80.010	19.994	103.911	19.957	3.001	0.476
254.499	206.983	80.010	19.994	103.913	19.956	3.103	0.467
254.999	207.264	80.010	19.992	103.912	19.955	3.120	0.530
255.499	207.495	80.010	19.992	103.910	19.955	3.162	0.540
255.999	207.782	80.010	19.993	103.911	19.955	3.111	0.515
256.499	207.996	80.009	19.993	103.908	19.956	3.070	0.509
256.999	208.253	80.009	19.993	103.906	19.955	3.133	0.486
257.499	208.471	80.008	19.993	103.906	19.954	3.214	0.473
257.999	208.719	80.010	19.993	103.906	19.954	3.241	0.471
258.500	208.979	80.009	19.993	103.905	19.953	3.278	0.487
259.000	209.204	80.009	19.993	103.907	19.954	3.182	0.496
259.499	209.488	80.009	19.993	103.909	19.956	3.059	0.496
259.999	209.718	80.009	19.993	103.909	19.955	3.151	0.511
260.500	209.962	80.009	19.993	103.909	19.956	3.066	0.494
260.999	210.194	80.010	19.993	103.910	19.956	3.065	0.475
261.499	210.442	80.008	19.993	103.909	19.953	3.250	0.478
261.999	210.707	80.010	19.993	103.908	19.953	3.290	0.497
262.499	210.964	80.010	19.993	103.908	19.954	3.222	0.518
262.999	211.211	80.009	19.994	103.908	19.951	3.410	0.513
263.499	211.426	80.011	19.993	103.907	19.954	3.199	0.483
263.999	211.674	80.009	19.994	103.906	19.956	3.070	0.463
264.499	211.950	80.010	19.993	103.905	19.954	3.206	0.494
264.999	212.204	80.009	19.992	103.908	19.952	3.336	0.527
265.499	212.384	80.009	19.992	103.908	19.952	3.360	0.482
265.999	212.649	80.011	19.993	103.907	19.951	3.412	0.439
266.499	212.915	80.009	19.995	103.908	19.952	3.364	0.488
266.999	213.139	80.010	19.994	103.907	19.955	3.153	0.510
267.499	213.406	80.011	19.994	103.904	19.952	3.358	0.490
267.999	213.660	80.011	19.994	103.905	19.952	3.320	0.506
268.499	213.888	80.012	19.993	103.906	19.953	3.303	0.502
268.999	214.172	80.011	19.993	103.905	19.953	3.301	0.497
269.499	214.359	80.013	19.994	103.904	19.953	3.256	0.491
269.999	214.631	80.012	19.994	103.904	19.953	3.309	0.465
270.499	214.905	80.013	19.993	103.903	19.954	3.208	0.502
270.999	215.097	80.012	19.993	103.902	19.952	3.351	0.506
271.499	215.398	80.012	19.993	103.901	19.955	3.131	0.479
271.999	215.593	80.011	19.994	103.901	19.954	3.211	0.495
272.499	215.839	80.011	19.993	103.900	19.955	3.151	0.469
272.999	216.129	80.010	19.993	103.899	19.952	3.362	0.488
273.499	216.337	80.012	19.993	103.899	19.951	3.417	0.517
273.999	216.591	80.010	19.992	103.900	19.953	3.257	0.480
274.499	216.855	80.011	19.994	103.900	19.954	3.245	0.490
274.999	217.083	80.009	19.994	103.902	19.955	3.173	0.505
275.499	217.329	80.010	19.993	103.903	19.954	3.178	0.483
275.999	217.565	80.011	19.993	103.903	19.954	3.180	0.478
276.499	217.791	80.011	19.993	103.901	19.956	3.087	0.472
276.999	218.042	80.010	19.992	103.901	19.957	3.013	0.470
277.499	218.280	80.009	19.994	103.900	19.955	3.123	0.483
277.999	218.577	80.010	19.993	103.899	19.955	3.162	0.512
278.499	218.806	80.009	19.993	103.899	19.957	2.984	0.530
278.999	219.042	80.009	19.993	103.900	19.953	3.263	0.495
279.499	219.255	80.009	19.992	103.900	19.955	3.125	0.457
279.999	219.566	80.010	19.992	103.900	19.952	3.340	0.486
280.499	219.789	80.009	19.993	103.900	19.955	3.177	0.529
280.999	220.045	80.010	19.993	103.899	19.952	3.355	0.507
281.499	220.267	80.009	19.993	103.899	19.954	3.217	0.479
281.999	220.525	80.008	19.993	103.899	19.954	3.208	0.479
282.499	220.772	80.009	19.993	103.900	19.950	3.518	0.493
282.999	220.996	80.009	19.992	103.900	19.955	3.177	0.488
283.499	221.310	80.009	19.993	103.900	19.955	3.147	0.504
283.999	221.556	80.008	19.993	103.900	19.954	3.230	0.549
284.499	221.761	80.009	19.993	103.900	19.953	3.268	0.506
284.999	222.027	80.010	19.995	103.900	19.954	3.195	0.461
285.499	222.298	80.008	19.993	103.901	19.953	3.276	0.504
285.999	222.543	80.009	19.993	103.901	19.954	3.223	0.526
286.499	222.772	80.009	19.993	103.900	19.954	3.200	0.495
286.999	223.030	80.008	19.993	103.900	19.956	3.083	0.481
287.499	223.297	80.008	19.994	103.899	19.953	3.256	0.506
287.999	223.541	80.009	19.993	103.899	19.956	3.103	0.517
288.499	223.807	80.008	19.994	103.899	19.953	3.272	0.510
288.999	224.034	80.009	19.994	103.899	19.953	3.309	0.501
289.499	224.268	80.008	19.995	103.899	19.952	3.351	0.477
289.999	224.546	80.009	19.994	103.899	19.952	3.379	0.487
290.499	224.764	80.008	19.994	103.899	19.951	3.401	0.504
290.999	225.036	80.009	19.993	103.899	19.951	3.439	0.493
291.499	225.309	80.008	19.994	103.899	19.952	3.373	0.517
291.999	225.550	80.008	19.995	103.899	19.953	3.294	0.529
292.499	225.787	80.008	19.994	103.899	19.956	3.092	0.496
292.999	226.047	80.008	19.994	103.899	19.954	3.232	0.488
293.499	226.286	80.009	19.995	103.898	19.952	3.347	0.498
293.999	226.535	80.008	19.994	103.898	19.954	3.245	0.494
294.499	226.794	80.008	19.994	103.898	19.955	3.134	0.498
294.999	227.037	80.009	19.995	103.897	19.954	3.232	0.505
295.499	227.266	80.009	19.994	103.898	19.955	3.125	0.487
295.999	227.524	80.009	19.994	103.898	19.955	3.133	0.479
296.499	227.776	80.009	19.994	103.899	19.954	3.200	0.499
296.999	228.039	80.008	19.995	103.900	19.958	2.945	0.513
297.499	228.300	80.008	19.994	103.899	19.956	3.096	0.519
297.999	228.566	80.009	19.994	103.900	19.956	3.100	0.525
298.499	228.811	80.008	19.994	103.899	19.956	3.077	0.519
298.999	229.111	80.009	19.993	103.899	19.955	3.173	0.528
299.499	229.366	80.008	19.993	103.899	19.957	2.976	0.550
299.999	229.579	80.010	19.994	103.900	19.958	2.945	0.512
300.499	229.843	80.009	19.994	103.900	19.957	2.987	0.472
300.999	230.086	80.008	19.993	103.900	19.956	3.057	0.492
301.499	230.402	80.009	19.994	103.900	19.957	2.993	0.533
301.999	230.611	80.010	19.993	103.900	19.958	2.918	0.542
302.499	230.871	80.009	19.993	103.900	19.959	2.872	0.497
302.999	231.108	80.009	19.993	103.899	19.956	3.076	0.484
303.499	231.363	80.008	19.994	103.900	19.958	2.953	0.494
303.999	231.603	80.008	19.993	103.899	19.957	2.976	0.493
304.499	231.850	80.008	19.994	103.899	19.954	3.182	0.491
304.999	232.084	80.009	19.994	103.900	19.956	3.059	0.484
305.499	232.348	80.008	19.994	103.902	19.957	2.988	0.489
305.999	232.587	80.008	19.994	103.901	19.961	2.747	0.500
306.499	232.831	80.009	19.993	103.902	19.959	2.857	0.493
306.999	233.087	80.008	19.993	103.901	19.959	2.899	0.492
307.499	233.341	80.009	19.993	103.901	19.957	3.013	0.505
307.999	233.613	80.008	19.993	103.901	19.958	2.945	0.518
308.499	233.864	80.008	19.994	103.901	19.959	2.855	0.524
308.999	234.112	80.009	19.994	103.901	19.956	3.066	0.511
309.499	234.366	80.009	19.993	103.901	19.957	2.995	0.500
309.999	234.621	80.007	19.994	103.901	19.957	2.989	0.505
310.499	234.878	80.007	19.994	103.901	19.957	3.002	0.511
310.999	235.095	80.008	19.994	103.900	19.954	3.190	0.493
311.499	235.363	80.008	19.995	103.898	19.958	2.932	0.479
311.999	235.629	80.008	19.993	103.898	19.954	3.215	0.509
312.499	235.878	80.007	19.994	103.898	19.957	2.982	0.524
312.999	236.130	80.007	19.995	103.898	19.958	2.951	0.508
313.499	236.410	80.008	19.994	103.898	19.953	3.265	0.517
313.999	236.653	80.008	19.995	103.900	19.957	3.002	0.528
314.499	236.881	80.007	19.994	103.901	19.959	2.890	0.497
314.999	237.158	80.007	19.994	103.900	19.956	3.059	0.488
315.499	237.410	80.008	19.994	103.901	19.955	3.116	0.517
316.000	237.637	80.009	19.994	103.900	19.957	3.006	0.504
316.500	237.910	80.009	19.994	103.901	19.956	3.099	0.489
316.999	238.182	80.008	19.994	103.900	19.957	3.006	0.523
317.499	238.415	80.008	19.993	103.900	19.956	3.065	0.525
317.999	238.641	80.008	19.995	103.900	19.959	2.899	0.482
318.499	238.878	80.008	19.994	103.900	19.956	3.042	0.461
319.000	239.147	80.008	19.995	103.900	19.957	2.973	0.484
319.500	239.417	80.007	19.994	103.902	19.956	3.096	0.522
320.000	239.682	80.008	19.994	103.902	19.957	3.033	0.537
320.499	239.905	80.010	19.994	103.901	19.953	3.261	0.512
320.999	240.135	80.008	19.994	103.902	19.953	3.285	0.470
321.499	240.412	80.008	19.994	103.901	19.957	3.004	0.480
321.999	240.675	80.009	19.995	103.902	19.955	3.127	0.524
322.499	240.883	80.010	19.996	103.901	19.953	3.261	0.506
322.999	241.163	80.010	19.994	103.902	19.953	3.288	0.479
323.499	241.397	80.009	19.995	103.900	19.954	3.224	0.501
323.999	241.634	80.010	19.994	103.900	19.959	2.868	0.493
324.499	241.893	80.009	19.995	103.899	19.955	3.129	0.484
324.999	242.117	80.009	19.995	103.899	19.955	3.131	0.490
325.499	242.377	80.009	19.993	103.898	19.956	3.042	0.484
325.999	242.649	80.009	19.995	103.899	19.956	3.099	0.508
326.499	242.900	80.011	19.995	103.899	19.958	2.965	0.528
326.999	243.101	80.009	19.995	103.899	19.955	3.138	0.488
327.499	243.404	80.009	19.995	103.900	19.959	2.863	0.478
327.999	243.617	80.009	19.995	103.900	19.956	3.050	0.510
328.499	243.898	80.010	19.994	103.898	19.956	3.099	0.505
328.999	244.118	80.009	19.995	103.895	19.957	3.039	0.498
329.499	244.397	80.009	19.994	103.894	19.959	2.857	0.500
329.999	244.651	80.009	19.995	103.893	19.957	3.006	0.516
330.499	244.885	80.010	19.994	103.892	19.955	3.139	0.510
330.999	245.135	80.010	19.993	103.892	19.957	2.991	0.486
331.499	245.381	80.010	19.993	103.894	19.955	3.163	0.490
331.999	245.623	80.010	19.995	103.894	19.956	3.044	0.492
332.499	245.854	80.009	19.994	103.893	19.961	2.761	0.480
332.999	246.169	80.011	19.993	103.893	19.959	2.888	0.509
333.499	246.394	80.010	19.994	103.894	19.957	2.994	0.543
333.999	246.632	80.009	19.992	103.896	19.959	2.837	0.501
334.499	246.905	80.010	19.994	103.895	19.959	2.855	0.487
334.999	247.147	80.008	19.993	103.895	19.959	2.899	0.513
335.499	247.401	80.010	19.994	103.894	19.958	2.952	0.506
335.999	247.660	80.009	19.995	103.893	19.959	2.880	0.504
336.499	247.895	80.010	19.994	103.894	19.960	2.833	0.503
336.999	248.160	80.010	19.995	103.895	19.960	2.835	0.497
337.499	248.387	80.010	19.994	103.896	19.958	2.969	0.497
337.999	248.634	80.010	19.994	103.896	19.960	2.778	0.483
338.499	248.892	80.009	19.994	103.896	19.957	2.989	0.490
338.999	249.153	80.009	19.993	103.895	19.957	3.003	0.512
339.499	249.410	80.010	19.994	103.893	19.957	2.974	0.518
339.999	249.672	80.010	19.993	103.890	19.958	2.906	0.519
340.499	249.967	80.009	19.994	103.891	19.956	3.093	0.538
340.999	250.199	80.009	19.994	103.889	19.957	2.989	0.542
341.499	250.471	80.009	19.994	103.887	19.956	3.049	0.516
341.999	250.696	80.009	19.993	103.886	19.957	3.033	0.501
342.499	250.930	80.010	19.993	103.888	19.957	3.036	0.478
342.999	251.198	80.010	19.994	103.888	19.956	3.048	0.480
343.499	251.448	80.009	19.993	103.888	19.959	2.886	0.510
343.999	251.737	80.010	19.994	103.888	19.959	2.868	0.529
344.499	251.988	80.010	19.994	103.887	19.961	2.743	0.540
344.999	252.206	80.010	19.993	103.886	19.959	2.892	0.505
345.499	252.477	80.009	19.993	103.882	19.956	3.094	0.479
345.999	252.722	80.010	19.994	103.882	19.954	3.180	0.502
346.499	252.931	80.010	19.993	103.881	19.957	2.992	0.485
346.999	253.198	80.011	19.993	103.882	19.959	2.895	0.465
347.499	253.444	80.013	19.993	103.882	19.958	2.946	0.494
347.999	253.707	80.012	19.993	103.882	19.959	2.876	0.511
348.499	253.943	80.012	19.992	103.879	19.957	3.018	0.504
348.999	254.177	80.011	19.994	103.876	19.957	3.012	0.485
349.499	254.446	80.010	19.993	103.874	19.956	3.084	0.487
349.999	254.692	80.012	19.994	103.870	19.955	3.117	0.509
350.499	254.961	80.012	19.992	103.868	19.956	3.088	0.515
350.999	255.199	80.012	19.994	103.866	19.956	3.101	0.511
351.499	255.429	80.011	19.993	103.868	19.956	3.064	0.487
351.999	255.687	80.011	19.993	103.872	19.957	3.036	0.478
352.499	255.936	80.011	19.994	103.877	19.956	3.080	0.497
352.999	256.226	80.011	19.994	103.878	19.953	3.312	0.523
353.499	256.427	80.010	19.992	103.880	19.958	2.970	0.515
353.999	256.706	80.011	19.993	103.882	19.956	3.080	0.486
354.499	256.955	80.011	19.993	103.882	19.957	3.020	0.504
354.999	257.194	80.011	19.994	103.882	19.957	2.989	0.508
355.499	257.400	80.011	19.995	103.886	19.957	3.027	0.466
355.999	257.673	80.010	19.993	103.887	19.956	3.071	0.462
356.499	257.963	80.010	19.994	103.887	19.959	2.877	0.521
356.999	258.151	80.010	19.994	103.881	19.960	2.829	0.521
357.499	258.399	80.010	19.993	103.877	19.958	2.948	0.457
357.999	258.706	80.009	19.994	103.872	19.958	2.915	0.496
358.499	258.927	80.009	19.994	103.870	19.958	2.911	0.541
358.999	259.209	80.009	19.994	103.866	19.957	3.022	0.515
359.499	259.467	80.008	19.993	103.869	19.959	2.886	0.521
359.999	259.647	80.008	19.993	103.868	19.959	2.886	0.489
360.499	259.916	80.009	19.994	103.871	19.957	3.025	0.444
360.999	260.169	80.008	19.993	103.874	19.956	3.064	0.486
361.499	260.397	80.009	19.993	103.877	19.958	2.945	0.502
361.999	260.639	80.008	19.993	103.876	19.957	3.003	0.476
362.499	260.887	80.009	19.993	103.877	19.959	2.864	0.480
362.999	261.162	80.008	19.993	103.875	19.959	2.871	0.507
363.499	261.364	80.009	19.994	103.873	19.959	2.866	0.500
363.999	261.616	80.009	19.993	103.873	19.956	3.055	0.465
364.499	261.868	80.008	19.993	103.873	19.957	2.996	0.479
364.999	262.109	80.010	19.994	103.876	19.959	2.869	0.499
365.499	262.399	80.009	19.993	103.877	19.959	2.862	0.512
365.999	262.652	80.009	19.994	103.879	19.959	2.893	0.537
366.499	262.900	80.009	19.994	103.877	19.961	2.739	0.522
366.999	263.125	80.009	19.994	103.875	19.958	2.944	0.487
367.499	263.382	80.009	19.993	103.872	19.959	2.844	0.478
367.999	263.604	80.009	19.993	103.872	19.956	3.082	0.481
368.499	263.903	80.009	19.994	103.869	19.959	2.890	0.500
368.999	264.104	80.010	19.993	103.869	19.962	2.640	0.510
369.499	264.371	80.009	19.994	103.870	19.958	2.908	0.484
369.999	264.637	80.008	19.993	103.871	19.960	2.785	0.501
370.499	264.889	80.009	19.993	103.868	19.957	3.033	0.525
370.999	265.137	80.009	19.994	103.870	19.956	3.051	0.509
371.499	265.371	80.009	19.993	103.870	19.956	3.097	0.491
371.999	265.636	80.010	19.992	103.876	19.958	2.963	0.490
372.499	265.836	80.010	19.993	103.881	19.961	2.701	0.482
372.999	266.124	80.009	19.992	103.882	19.958	2.941	0.477
373.499	266.347	80.007	19.992	103.883	19.958	2.945	0.500
373.999	266.577	80.009	19.993	103.886	19.956	3.075	0.482
374.499	266.815	80.009	19.993	103.883	19.957	3.033	0.461
374.999	267.061	80.009	19.993	103.880	19.956	3.049	0.476
375.499	267.344	80.008	19.993	103.880	19.959	2.879	0.507
375.999	267.594	80.009	19.994	103.879	19.957	3.004	0.531
376.499	267.832	80.008	19.993	103.875	19.957	2.978	0.510
376.999	268.062	80.009	19.993	103.874	19.959	2.871	0.478
377.499	268.308	80.008	19.993	103.873	19.957	2.993	0.472
377.999	268.589	80.010	19.993	103.873	19.957	3.009	0.501
378.499	268.826	80.009	19.993	103.877	19.958	2.959	0.522
378.999	269.049	80.009	19.994	103.880	19.954	3.198	0.488
379.499	269.339	80.009	19.993	103.884	19.957	2.987	0.486
379.999	269.557	80.009	19.993	103.888	19.956	3.047	0.511
380.499	269.820	80.008	19.993	103.889	19.956	3.044	0.495
380.999	270.051	80.009	19.993	103.887	19.956	3.086	0.487
381.499	270.357	80.008	19.994	103.885	19.956	3.100	0.515
381.999	270.581	80.008	19.993	103.883	19.956	3.084	0.534
382.499	270.852	80.009	19.994	103.880	19.953	3.255	0.512
382.999	271.125	80.010	19.994	103.882	19.957	2.974	0.519
383.499	271.377	80.008	19.994	103.883	19.954	3.181	0.535
383.999	271.636	80.007	19.993	103.880	19.956	3.054	0.518
384.499	271.851	80.009	19.993	103.880	19.956	3.040	0.493
384.999	272.106	80.006	19.994	103.881	19.960	2.796	0.472
385.499	272.356	80.008	19.993	103.883	19.960	2.827	0.487
385.999	272.607	80.006	19.994	103.883	19.955	3.128	0.503
386.499	272.835	80.008	19.995	103.887	19.957	2.977	0.490
386.999	273.120	80.008	19.994	103.891	19.958	2.948	0.497
387.499	273.363	80.008	19.994	103.892	19.957	3.032	0.521
387.999	273.598	80.008	19.995	103.888	19.958	2.904	0.503
388.499	273.832	80.007	19.994	103.884	19.957	3.036	0.474
389.000	274.084	80.009	19.993	103.881	19.959	2.891	0.478
389.499	274.316	80.007	19.995	103.877	19.956	3.065	0.485
389.999	274.605	80.008	19.994	103.872	19.954	3.220	0.502
390.499	274.857	80.008	19.994	103.870	19.957	3.034	0.531
390.999	275.108	80.009	19.993	103.869	19.956	3.044	0.522
391.499	275.341	80.008	19.994	103.869	19.954	3.218	0.493
391.999	275.597	80.008	19.994	103.868	19.957	3.034	0.486
392.499	275.841	80.008	19.996	103.868	19.957	3.029	0.494
392.999	276.076	80.010	19.994	103.869	19.958	2.948	0.490
393.499	276.354	80.009	19.994	103.870	19.961	2.733	0.496
393.999	276.593	80.008	19.995	103.866	19.957	3.029	0.514
394.499	276.820	80.007	19.994	103.866	19.959	2.864	0.491
394.999	277.083	80.009	19.994	103.866	19.958	2.923	0.478
395.499	277.331	80.009	19.994	103.865	19.958	2.924	0.500
395.999	277.579	80.010	19.994	103.864	19.954	3.187	0.503
396.499	277.836	80.008	19.994	103.865	19.961	2.707	0.500
396.999	278.088	80.009	19.995	103.866	19.958	2.915	0.507
397.499	278.323	80.009	19.994	103.866	19.957	3.019	0.498
397.999	278.581	80.009	19.993	103.868	19.959	2.898	0.490
398.499	278.837	80.010	19.994	103.868	19.959	2.882	0.504
398.999	279.121	80.009	19.994	103.868	19.957	3.019	0.527
399.499	279.375	80.010	19.994	103.866	19.961	2.744	0.539
399.999	279.610	80.009	19.993	103.867	19.959	2.880	0.514
400.499	279.858	80.008	19.995	103.867	19.957	2.999	0.486
400.999	280.117	80.011	19.994	103.869	19.957	2.997	0.495
401.499	280.361	80.010	19.995	103.875	19.959	2.900	0.505
401.999	280.623	80.011	19.994	103.875	19.957	2.974	0.505
402.499	280.806	80.010	19.994	103.874	19.960	2.810	0.475
402.999	281.077	80.010	19.993	103.872	19.958	2.963	0.449
403.499	281.330	80.011	19.994	103.870	19.957	2.997	0.489
403.999	281.593	80.010	19.993	103.866	19.958	2.963	0.520
404.499	281.868	80.011	19.993	103.871	19.958	2.942	0.527
404.999	282.115	80.011	19.994	103.876	19.957	2.974	0.530
405.499	282.357	80.010	19.994	103.876	19.955	3.170	0.505
405.999	282.596	80.010	19.993	103.879	19.958	2.966	0.485
406.499	282.847	80.010	19.993	103.876	19.959	2.838	0.485
406.999	283.114	80.012	19.993	103.871	19.958	2.948	0.504
407.500	283.375	80.011	19.994	103.865	19.958	2.913	0.523
408.000	283.604	80.011	19.994	103.866	19.958	2.930	0.509
408.500	283.882	80.011	19.994	103.864	19.959	2.895	0.499
408.999	284.114	80.011	19.994	103.864	19.960	2.810	0.508
409.499	284.387	80.010	19.993	103.864	19.958	2.957	0.507
409.999	284.599	80.011	19.994	103.864	19.959	2.902	0.495
410.500	284.901	80.011	19.993	103.862	19.956	3.053	0.500
410.999	285.135	80.011	19.994	103.861	19.959	2.895	0.525
411.500	285.398	80.010	19.994	103.860	19.959	2.838	0.516
412.000	285.638	80.010	19.994	103.861	19.959	2.838	0.500
412.499	285.867	80.011	19.994	103.863	19.959	2.843	0.486
412.999	286.128	80.009	19.995	103.862	19.959	2.856	0.479
413.499	286.423	80.011	19.994	103.863	19.962	2.678	0.522
414.000	286.627	80.009	19.995	103.863	19.959	2.851	0.528
414.500	286.880	80.010	19.995	103.864	19.958	2.966	0.479
415.000	287.151	80.008	19.994	103.862	19.960	2.819	0.491
415.500	287.375	80.009	19.995	103.862	19.958	2.911	0.509
416.000	287.642	80.009	19.995	103.862	19.957	3.034	0.493
416.500	287.864	80.009	19.995	103.862	19.958	2.939	0.490
417.000	288.121	80.009	19.994	103.860	19.961	2.750	0.484
417.500	288.360	80.009	19.994	103.859	19.957	2.972	0.488
418.000	288.612	80.009	19.994	103.860	19.960	2.812	0.494
418.499	288.856	80.008	19.994	103.862	19.961	2.755	0.493
418.999	289.089	80.009	19.995	103.863	19.959	2.843	0.486
419.499	289.412	80.009	19.994	103.868	19.958	2.917	0.516
419.999	289.639	80.009	19.994	103.868	19.956	3.045	0.553
420.499	289.882	80.010	19.994	103.869	19.957	2.979	0.510
420.999	290.159	80.009	19.994	103.865	19.960	2.803	0.495
421.499	290.412	80.009	19.994	103.864	19.956	3.045	0.525
421.999	290.627	80.009	19.995	103.861	19.958	2.966	0.499
422.499	290.909	80.011	19.994	103.865	19.959	2.882	0.483
422.999	291.137	80.010	19.994	103.864	19.958	2.926	0.504
423.499	291.399	80.010	19.994	103.865	19.958	2.948	0.500
423.999	291.677	80.011	19.994	103.866	19.961	2.726	0.515
424.499	291.947	80.011	19.994	103.865	19.958	2.964	0.544
424.999	292.184	80.012	19.993	103.862	19.957	2.979	0.528
425.499	292.442	80.011	19.992	103.862	19.959	2.854	0.502
425.999	292.707	80.011	19.994	103.862	19.957	3.038	0.509
426.499	292.955	80.010	19.993	103.862	19.958	2.942	0.518
426.999	293.214	80.011	19.993	103.860	19.958	2.942	0.510
427.499	293.482	80.011	19.993	103.859	19.959	2.884	0.516
427.999	293.694	80.013	19.992	103.860	19.960	2.810	0.503
428.499	293.951	80.011	19.993	103.860	19.959	2.851	0.475
428.999	294.210	80.012	19.993	103.860	19.960	2.781	0.493
429.499	294.448	80.010	19.993	103.860	19.962	2.654	0.507
429.999	294.739	80.011	19.993	103.860	19.961	2.762	0.514
430.499	294.966	80.012	19.992	103.860	19.960	2.801	0.523
430.999	295.210	80.012	19.992	103.861	19.959	2.849	0.494
431.499	295.490	80.012	19.993	103.861	19.960	2.807	0.497
431.999	295.701	80.011	19.993	103.861	19.961	2.707	0.508
432.499	295.971	80.011	19.993	103.861	19.959	2.840	0.486
432.999	296.183	80.011	19.993	103.861	19.961	2.722	0.481
433.499	296.436	80.010	19.992	103.862	19.960	2.766	0.474
433.999	296.703	80.012	19.992	103.862	19.963	2.614	0.493
434.499	296.980	80.011	19.993	103.862	19.959	2.845	0.532
434.999	297.199	80.010	19.994	103.862	19.962	2.630	0.520
435.499	297.475	80.011	19.993	103.863	19.960	2.790	0.495
435.999	297.716	80.009	19.993	103.862	19.959	2.851	0.506
436.499	297.973	80.010	19.992	103.863	19.961	2.706	0.507
436.999	298.228	80.010	19.993	103.863	19.959	2.900	0.505
437.499	298.499	80.009	19.993	103.863	19.961	2.719	0.519
437.999	298.765	80.010	19.994	103.863	19.961	2.724	0.531
438.499	298.981	80.010	19.993	103.864	19.961	2.713	0.510
438.999	299.223	80.009	19.994	103.863	19.965	2.474	0.471
439.499	299.462	80.009	19.993	103.863	19.962	2.682	0.469
439.999	299.724	80.007	19.994	103.863	19.960	2.821	0.490
440.499	299.973	80.010	19.994	103.864	19.961	2.731	0.506
440.999	300.210	80.008	19.993	103.863	19.962	2.662	0.499
441.499	300.466	80.008	19.993	103.863	19.962	2.671	0.490
441.999	300.739	80.008	19.993	103.864	19.960	2.823	0.511
442.499	300.963	80.008	19.994	103.864	19.960	2.788	0.513
442.999	301.236	80.008	19.993	103.863	19.963	2.599	0.497
443.499	301.476	80.008	19.994	103.864	19.962	2.676	0.506
443.999	301.751	80.008	19.993	103.863	19.960	2.766	0.514
444.499	301.978	80.007	19.993	103.863	19.960	2.790	0.508
444.999	302.236	80.008	19.993	103.863	19.962	2.654	0.493
445.499	302.495	80.008	19.992	103.863	19.960	2.805	0.501
445.999	302.750	80.008	19.994	103.863	19.959	2.878	0.515
446.499	302.963	80.007	19.994	103.865	19.958	2.963	0.491
446.999	303.236	80.008	19.994	103.866	19.958	2.913	0.478
447.499	303.471	80.010	19.993	103.867	19.961	2.726	0.497
447.999	303.728	80.008	19.995	103.867	19.961	2.742	0.499
448.499	304.000	80.008	19.994	103.867	19.960	2.828	0.510
448.999	304.223	80.008	19.994	103.866	19.959	2.852	0.513
449.499	304.486	80.009	19.994	103.865	19.962	2.682	0.491
449.999	304.729	80.008	19.993	103.865	19.961	2.702	0.496
450.499	304.993	80.008	19.994	103.865	19.964	2.496	0.506
450.999	305.223	80.009	19.993	103.865	19.964	2.531	0.500
451.499	305.521	80.009	19.994	103.865	19.962	2.691	0.511
451.999	305.756	80.008	19.994	103.865	19.963	2.617	0.531
452.499	306.025	80.009	19.993	103.865	19.961	2.722	0.519
452.999	306.290	80.009	19.994	103.865	19.968	2.280	0.519
453.499	306.517	80.009	19.993	103.865	19.963	2.616	0.513
453.999	306.777	80.010	19.993	103.864	19.962	2.638	0.490
454.499	307.018	80.009	19.993	103.864	19.962	2.656	0.494
454.999	307.304	80.010	19.993	103.864	19.962	2.641	0.514
455.499	307.523	80.008	19.993	103.864	19.963	2.577	0.516
455.999	307.760	80.008	19.993	103.863	19.964	2.494	0.480
456.499	308.002	80.009	19.993	103.863	19.961	2.722	0.467
456.999	308.284	80.009	19.994	103.862	19.959	2.878	0.501
457.499	308.543	80.010	19.993	103.861	19.961	2.700	0.532
457.999	308.762	80.009	19.993	103.860	19.961	2.733	0.509
458.499	308.993	80.011	19.993	103.858	19.965	2.452	0.464
459.000	309.255	80.010	19.994	103.858	19.962	2.696	0.472
459.499	309.538	80.011	19.993	103.858	19.964	2.520	0.519
459.999	309.761	80.011	19.994	103.858	19.965	2.483	0.526
460.499	310.013	80.010	19.994	103.858	19.964	2.555	0.490
460.999	310.294	80.010	19.994	103.860	19.965	2.472	0.504
461.499	310.516	80.009	19.993	103.860	19.965	2.485	0.518
462.000	310.800	80.010	19.993	103.860	19.964	2.515	0.505
462.499	311.061	80.011	19.993	103.860	19.964	2.500	0.525
462.999	311.298	80.008	19.993	103.860	19.966	2.423	0.522
463.499	311.538	80.009	19.993	103.861	19.966	2.412	0.488
463.999	311.822	80.010	19.993	103.861	19.963	2.601	0.500
464.499	312.103	80.009	19.993	103.861	19.965	2.478	0.544
464.999	312.345	80.010	19.993	103.861	19.962	2.639	0.544
465.499	312.593	80.009	19.993	103.860	19.961	2.702	0.507
465.999	312.855	80.010	19.993	103.860	19.960	2.794	0.500
466.499	313.094	80.009	19.994	103.860	19.959	2.863	0.505
466.999	313.377	80.010	19.993	103.859	19.961	2.737	0.511
467.499	313.606	80.009	19.994	103.858	19.963	2.577	0.517
467.999	313.859	80.009	19.992	103.859	19.961	2.757	0.497
468.499	314.149	80.011	19.993	103.858	19.959	2.836	0.513
468.999	314.326	80.008	19.993	103.859	19.963	2.603	0.505
469.499	314.632	80.009	19.993	103.860	19.963	2.593	0.475
469.999	314.856	80.009	19.994	103.861	19.960	2.801	0.507
470.499	315.123	80.009	19.994	103.862	19.962	2.661	0.510
470.999	315.360	80.008	19.993	103.862	19.964	2.549	0.497
471.499	315.596	80.009	19.994	103.862	19.963	2.625	0.489
471.999	315.875	80.009	19.995	103.862	19.961	2.740	0.494
472.499	316.124	80.009	19.993	103.862	19.960	2.808	0.522
472.999	316.396	80.008	19.994	103.862	19.962	2.630	0.525
473.499	316.656	80.009	19.994	103.861	19.959	2.878	0.526
473.999	316.916	80.010	19.994	103.861	19.961	2.759	0.526
474.499	317.171	80.009	19.993	103.861	19.962	2.656	0.517
474.999	317.429	80.010	19.994	103.861	19.963	2.592	0.514
475.499	317.634	80.009	19.994	103.861	19.964	2.544	0.488
475.999	317.912	80.008	19.993	103.861	19.961	2.735	0.473
476.499	318.161	80.008	19.994	103.861	19.962	2.660	0.505
476.999	318.443	80.007	19.995	103.861	19.961	2.727	0.529
477.499	318.633	80.008	19.994	103.861	19.960	2.823	0.502
477.999	318.932	80.007	19.993	103.860	19.962	2.659	0.481
478.499	319.147	80.009	19.994	103.860	19.963	2.606	0.502
478.999	319.411	80.010	19.994	103.858	19.960	2.823	0.497
479.499	319.641	80.008	19.995	103.858	19.965	2.489	0.486
479.999	319.898	80.009	19.994	103.855	19.961	2.702	0.490
480.499	320.163	80.010	19.995	103.854	19.958	2.933	0.505
480.999	320.410	80.010	19.995	103.855	19.960	2.770	0.517
481.500	320.625	80.010	19.994	103.856	19.962	2.674	0.487
481.999	320.898	80.010	19.993	103.856	19.961	2.764	0.476
482.499	321.177	80.010	19.995	103.859	19.960	2.808	0.520
482.999	321.410	80.011	19.992	103.859	19.959	2.852	0.531
483.499	321.687	80.010	19.995	103.859	19.961	2.753	0.511
483.999	321.963	80.010	19.993	103.859	19.962	2.691	0.532
484.499	322.175	80.010	19.996	103.859	19.962	2.661	0.521
484.999	322.428	80.011	19.994	103.859	19.959	2.880	0.476
485.499	322.691	80.011	19.993	103.859	19.960	2.775	0.490
485.999	322.929	80.011	19.993	103.859	19.961	2.748	0.509
486.499	323.190	80.011	19.995	103.859	19.962	2.663	0.501
486.999	323.419	80.011	19.994	103.859	19.962	2.672	0.495
487.499	323.680	80.011	19.994	103.858	19.959	2.878	0.490
487.999	323.955	80.010	19.994	103.855	19.962	2.658	0.513
488.499	324.225	80.011	19.994	103.855	19.961	2.746	0.540
488.999	324.453	80.009	19.994	103.855	19.962	2.649	0.521
489.499	324.725	80.011	19.993	103.855	19.961	2.751	0.499
489.999	324.960	80.010	19.995	103.855	19.962	2.687	0.503
490.499	325.196	80.011	19.995	103.856	19.964	2.549	0.489
490.999	325.459	80.010	19.994	103.857	19.960	2.834	0.485
491.499	325.707	80.010	19.993	103.858	19.963	2.597	0.505
491.999	325.975	80.010	19.993	103.858	19.963	2.626	0.514
492.499	326.218	80.010	19.994	103.858	19.964	2.514	0.514
492.999	326.474	80.010	19.994	103.860	19.964	2.551	0.505
493.499	326.718	80.009	19.993	103.859	19.963	2.617	0.499
493.999	326.967	80.010	19.994	103.858	19.962	2.694	0.497
494.499	327.196	80.010	19.994	103.855	19.965	2.435	0.486
494.999	327.500	80.009	19.993	103.851	19.965	2.448	0.506
495.499	327.734	80.009	19.994	103.849	19.962	2.641	0.535
495.999	327.983	80.009	19.994	103.849	19.963	2.569	0.510
496.499	328.226	80.010	19.994	103.850	19.962	2.639	0.487
496.999	328.475	80.009	19.994	103.853	19.961	2.707	0.492
497.499	328.728	80.009	19.994	103.854	19.964	2.544	0.497
497.999	329.010	80.009	19.993	103.853	19.963	2.617	0.519
498.499	329.224	80.009	19.994	103.855	19.963	2.615	0.515
498.999	329.476	80.009	19.994	103.854	19.962	2.654	0.481
499.499	329.767	80.010	19.994	103.854	19.963	2.584	0.505
499.999	330.054	80.009	19.994	103.856	19.966	2.399	0.561
500.499	330.259	80.009	19.994	103.859	19.961	2.716	0.535
500.999	330.522	80.009	19.995	103.858	19.964	2.516	0.480
501.499	330.781	80.008	19.994	103.858	19.964	2.525	0.495
501.999	331.042	80.009	19.994	103.857	19.962	2.674	0.521
502.499	331.284	80.009	19.995	103.856	19.962	2.683	0.512
502.999	331.535	80.008	19.994	103.852	19.966	2.377	0.499
503.499	331.782	80.009	19.994	103.848	19.962	2.645	0.496
503.999	332.030	80.009	19.994	103.845	19.964	2.520	0.496
504.499	332.287	80.010	19.994	103.845	19.963	2.588	0.500
504.999	332.560	80.010	19.994	103.843	19.963	2.577	0.518
505.499	332.850	80.008	19.994	103.846	19.965	2.472	0.547
505.999	333.092	80.011	19.994	103.849	19.964	2.549	0.547
506.499	333.313	80.010	19.995	103.853	19.964	2.515	0.498
506.999	333.598	80.011	19.995	103.852	19.962	2.634	0.484
507.499	333.858	80.009	19.995	103.854	19.963	2.617	0.525
507.999	334.116	80.009	19.995	103.855	19.966	2.408	0.531
508.499	334.358	80.010	19.994	103.856	19.962	2.641	0.509
508.999	334.630	80.010	19.994	103.853	19.965	2.430	0.508
509.499	334.868	80.011	19.994	103.852	19.963	2.575	0.513
509.999	335.134	80.010	19.995	103.852	19.965	2.459	0.507
510.499	335.357	80.010	19.995	103.851	19.964	2.553	0.496
510.999	335.636	80.009	19.995	103.850	19.963	2.619	0.495
511.499	335.893	80.010	19.995	103.852	19.966	2.404	0.519
511.999	336.138	80.010	19.994	103.855	19.968	2.263	0.519
512.500	336.407	80.011	19.994	103.854	19.961	2.753	0.508
513.000	336.672	80.009	19.995	103.856	19.965	2.476	0.524
513.500	336.945	80.009	19.993	103.857	19.966	2.377	0.536
514.000	337.184	80.009	19.994	103.856	19.967	2.290	0.525
514.500	337.425	80.009	19.994	103.855	19.965	2.439	0.496
515.000	337.670	80.010	19.994	103.856	19.964	2.531	0.483
515.499	337.966	80.009	19.993	103.855	19.961	2.733	0.513
515.999	338.199	80.009	19.994	103.855	19.961	2.700	0.535
516.499	338.409	80.009	19.993	103.857	19.964	2.553	0.486
516.999	338.670	80.009	19.994	103.856	19.964	2.536	0.457
517.499	338.965	80.009	19.995	103.855	19.963	2.619	0.514
517.999	339.191	80.010	19.993	103.856	19.964	2.520	0.539
518.499	339.457	80.009	19.993	103.853	19.963	2.606	0.506
518.999	339.714	80.008	19.993	103.848	19.964	2.525	0.507
519.499	339.959	80.009	19.993	103.846	19.966	2.414	0.513
519.999	340.192	80.008	19.993	103.847	19.962	2.661	0.491
520.499	340.456	80.008	19.993	103.843	19.961	2.748	0.487
520.999	340.691	80.008	19.993	103.841	19.962	2.639	0.497
521.499	340.967	80.009	19.993	103.844	19.962	2.680	0.505
521.999	341.225	80.008	19.993	103.842	19.964	2.540	0.522
522.499	341.486	80.008	19.994	103.840	19.963	2.591	0.527
522.999	341.721	80.009	19.994	103.843	19.964	2.525	0.508
523.499	341.975	80.008	19.994	103.846	19.966	2.375	0.493
523.999	342.275	80.009	19.994	103.846	19.966	2.406	0.521
524.500	342.503	80.009	19.994	103.847	19.967	2.321	0.541
525.000	342.741	80.009	19.993	103.847	19.964	2.499	0.497
525.499	342.988	80.008	19.993	103.846	19.961	2.732	0.476
525.999	343.282	80.008	19.994	103.845	19.965	2.433	0.513
526.499	343.494	80.010	19.995	103.844	19.966	2.369	0.524
526.999	343.750	80.008	19.994	103.843	19.964	2.545	0.487
527.499	343.989	80.009	19.993	103.840	19.964	2.519	0.481
527.999	344.270	80.008	19.994	103.840	19.965	2.474	0.507
528.499	344.499	80.009	19.995	103.843	19.964	2.505	0.515
528.999	344.737	80.010	19.994	103.844	19.965	2.485	0.489
529.499	344.994	80.008	19.994	103.847	19.965	2.455	0.481
529.999	345.262	80.008	19.993	103.853	19.967	2.349	0.510
530.499	345.484	80.008	19.994	103.855	19.964	2.507	0.508
530.999	345.772	80.008	19.994	103.854	19.964	2.553	0.500
531.499	346.016	80.008	19.994	103.855	19.963	2.617	0.521
531.999	346.286	80.008	19.994	103.855	19.962	2.644	0.523
532.499	346.543	80.008	19.994	103.852	19.965	2.435	0.521
532.999	346.779	80.009	19.993	103.850	19.965	2.432	0.510
533.499	347.035	80.009	19.993	103.849	19.965	2.467	0.493
533.999	347.298	80.008	19.993	103.846	19.964	2.494	0.505
534.499	347.522	80.008	19.994	103.841	19.965	2.428	0.503
534.999	347.774	80.007	19.994	103.840	19.966	2.388	0.481
535.500	348.018	80.008	19.993	103.835	19.965	2.448	0.486
536.000	348.281	80.008	19.994	103.831	19.966	2.395	0.502
536.499	348.525	80.009	19.993	103.830	19.963	2.563	0.507
536.999	348.809	80.007	19.994	103.832	19.963	2.626	0.517
537.499	349.038	80.008	19.994	103.830	19.964	2.547	0.520
537.999	349.302	80.008	19.994	103.829	19.963	2.593	0.503
538.499	349.568	80.009	19.994	103.831	19.961	2.729	0.512
538.999	349.847	80.008	19.994	103.832	19.962	2.648	0.538
539.499	350.084	80.009	19.994	103.832	19.965	2.486	0.530
539.999	350.343	80.007	19.994	103.835	19.964	2.552	0.506
540.499	350.593	80.008	19.994	103.841	19.964	2.527	0.503
540.999	350.862	80.008	19.993	103.842	19.963	2.586	0.514
541.499	351.070	80.010	19.994	103.842	19.965	2.439	0.497
541.999	351.331	80.008	19.994	103.839	19.963	2.593	0.473
542.499	351.543	80.008	19.993	103.836	19.963	2.600	0.471
542.999	351.829	80.009	19.995	103.837	19.966	2.373	0.486
543.499	352.085	80.008	19.994	103.840	19.968	2.270	0.520
543.999	352.307	80.007	19.993	103.841	19.968	2.250	0.510
544.499	352.576	80.009	19.995	103.846	19.966	2.398	0.485
545.000	352.841	80.008	19.993	103.850	19.969	2.160	0.513
545.500	353.094	80.007	19.993	103.846	19.969	2.217	0.526
545.999	353.334	80.008	19.994	103.841	19.968	2.281	0.505
546.499	353.613	80.009	19.992	103.838	19.967	2.352	0.506
547.000	353.868	80.010	19.993	103.833	19.966	2.362	0.526
547.500	354.139	80.008	19.993	103.830	19.966	2.391	0.530
548.000	354.375	80.009	19.993	103.832	19.965	2.477	0.516
548.500	354.622	80.008	19.993	103.834	19.966	2.410	0.495
548.999	354.886	80.009	19.994	103.832	19.967	2.292	0.497
549.500	355.130	80.009	19.992	103.832	19.963	2.569	0.509
550.000	355.390	80.008	19.993	103.832	19.966	2.362	0.506
550.499	355.611	80.008	19.993	103.828	19.964	2.507	0.493
550.999	355.869	80.009	19.992	103.829	19.964	2.521	0.480
551.499	356.121	80.009	19.994	103.831	19.963	2.587	0.495
551.999	356.378	80.008	19.994	103.834	19.965	2.461	0.510
552.499	356.615	80.009	19.993	103.835	19.967	2.301	0.502
552.999	356.880	80.008	19.993	103.839	19.965	2.430	0.498
553.499	357.140	80.009	19.994	103.838	19.968	2.242	0.514
553.999	357.369	80.008	19.994	103.836	19.966	2.409	0.507
554.500	357.643	80.009	19.994	103.834	19.965	2.479	0.495
555.000	357.899	80.010	19.994	103.832	19.968	2.281	0.516
555.499	358.118	80.008	19.993	103.828	19.966	2.386	0.503
555.999	358.381	80.008	19.993	103.825	19.966	2.419	0.479
556.499	358.633	80.007	19.993	103.825	19.966	2.389	0.499
556.999	358.862	80.007	19.993	103.825	19.963	2.602	0.498
557.499	359.143	80.009	19.994	103.825	19.965	2.452	0.495
557.999	359.429	80.008	19.993	103.828	19.965	2.446	0.539
558.499	359.640	80.009	19.993	103.832	19.963	2.624	0.532
558.999	359.900	80.008	19.993	103.836	19.966	2.400	0.484
559.500	360.160	80.009	19.992	103.839	19.963	2.576	0.495
560.000	360.419	80.007	19.993	103.842	19.963	2.589	0.520
560.499	360.663	80.009	19.993	103.841	19.964	2.505	0.511
560.999	360.909	80.008	19.992	103.840	19.962	2.652	0.496
561.500	361.161	80.009	19.993	103.839	19.965	2.490	0.494
562.000	361.416	80.009	19.993	103.836	19.964	2.547	0.503
562.499	361.646	80.009	19.993	103.834	19.964	2.494	0.496
562.999	361.903	80.010	19.992	103.836	19.965	2.475	0.486
563.499	362.122	80.009	19.993	103.834	19.962	2.659	0.481
563.999	362.369	80.009	19.993	103.835	19.963	2.574	0.471
564.500	362.646	80.010	19.994	103.835	19.963	2.589	0.495
565.000	362.867	80.010	19.993	103.834	19.963	2.593	0.511
565.499	363.134	80.008	19.991	103.833	19.964	2.497	0.493
565.999	363.374	80.009	19.994	103.836	19.965	2.466	0.497
566.499	363.647	80.010	19.995	103.839	19.964	2.499	0.510
566.999	363.912	80.009	19.993	103.843	19.965	2.433	0.526
567.499	364.137	80.009	19.994	103.846	19.964	2.516	0.514
567.999	364.405	80.009	19.994	103.845	19.963	2.617	0.491
568.500	364.686	80.010	19.994	103.842	19.965	2.472	0.521
569.000	364.897	80.010	19.994	103.837	19.964	2.527	0.521
569.500	365.154	80.009	19.994	103.835	19.964	2.545	0.480
570.000	365.414	80.008	19.993	103.832	19.961	2.756	0.492
570.499	365.661	80.009	19.994	103.833	19.964	2.518	0.512
570.999	365.903	80.008	19.994	103.835	19.963	2.606	0.498
571.499	366.182	80.011	19.994	103.833	19.963	2.611	0.505
572.000	366.438	80.008	19.995	103.830	19.963	2.576	0.528
572.500	366.642	80.007	19.994	103.830	19.964	2.503	0.497
572.999	366.905	80.009	19.994	103.828	19.962	2.672	0.463
573.499	367.154	80.008	19.994	103.825	19.960	2.806	0.490
573.999	367.400	80.008	19.994	103.827	19.961	2.721	0.504
574.500	367.655	80.008	19.994	103.828	19.962	2.652	0.498
575.000	367.916	80.009	19.995	103.831	19.962	2.679	0.509
575.499	368.164	80.008	19.994	103.832	19.962	2.679	0.512
575.999	368.411	80.008	19.995	103.833	19.962	2.686	0.501
576.499	368.653	80.009	19.994	103.831	19.961	2.730	0.492
576.999	368.938	80.008	19.994	103.829	19.965	2.451	0.508
577.499	369.171	80.008	19.994	103.828	19.964	2.547	0.523
577.999	369.410	80.009	19.994	103.826	19.964	2.541	0.495
578.499	369.651	80.009	19.994	103.827	19.963	2.561	0.476
578.999	369.892	80.008	19.993	103.826	19.966	2.402	0.481
579.500	370.172	80.008	19.994	103.827	19.966	2.409	0.502
580.000	370.443	80.009	19.994	103.829	19.961	2.763	0.536
580.499	370.685	80.009	19.993	103.829	19.964	2.495	0.532
580.999	370.947	80.008	19.992	103.830	19.965	2.471	0.508
581.499	371.192	80.009	19.993	103.830	19.965	2.477	0.505
581.999	371.450	80.009	19.993	103.829	19.966	2.400	0.505
582.499	371.704	80.009	19.992	103.827	19.966	2.391	0.507
582.999	371.966	80.009	19.994	103.826	19.963	2.585	0.514
583.499	372.160	80.008	19.993	103.829	19.968	2.259	0.486
583.999	372.438	80.010	19.994	103.833	19.966	2.391	0.464
584.499	372.692	80.009	19.993	103.832	19.965	2.481	0.502
584.999	372.974	80.009	19.993	103.832	19.964	2.526	0.534
585.499	373.200	80.009	19.993	103.831	19.961	2.706	0.522
585.999	373.441	80.010	19.993	103.827	19.963	2.616	0.488
586.499	373.743	80.009	19.993	103.823	19.963	2.611	0.505
586.999	373.972	80.010	19.993	103.824	19.964	2.508	0.537
587.499	374.232	80.009	19.994	103.823	19.964	2.505	0.510
587.999	374.466	80.011	19.993	103.823	19.967	2.299	0.492
588.499	374.733	80.011	19.993	103.822	19.965	2.438	0.497
589.000	374.997	80.010	19.993	103.822	19.966	2.361	0.515
589.500	375.254	80.012	19.993	103.821	19.964	2.532	0.526
590.000	375.495	80.010	19.993	103.822	19.966	2.404	0.510
590.500	375.743	80.010	19.993	103.822	19.966	2.407	0.494
591.000	375.980	80.010	19.993	103.822	19.966	2.405	0.487
591.499	376.257	80.010	19.994	103.822	19.968	2.268	0.500
591.999	376.509	80.010	19.994	103.822	19.968	2.253	0.522
592.499	376.776	80.010	19.994	103.820	19.968	2.226	0.524
592.999	377.036	80.011	19.994	103.820	19.967	2.350	0.523
593.499	377.296	80.009	19.994	103.819	19.966	2.372	0.524
593.999	377.531	80.011	19.994	103.819	19.964	2.517	0.508
594.499	377.780	80.010	19.995	103.819	19.968	2.272	0.490
594.999	378.049	80.010	19.994	103.818	19.967	2.310	0.501
595.499	378.303	80.009	19.994	103.818	19.970	2.104	0.520
595.999	378.554	80.008	19.994	103.818	19.967	2.317	0.513
596.499	378.774	80.009	19.994	103.819	19.964	2.508	0.488
596.999	379.057	80.010	19.994	103.820	19.968	2.268	0.487
597.499	379.303	80.009	19.993	103.821	19.965	2.448	0.516
597.999	379.527	80.008	19.994	103.822	19.966	2.378	0.500
598.499	379.804	80.007	19.994	103.822	19.966	2.416	0.485
598.999	380.045	80.007	19.993	103.822	19.967	2.316	0.509
599.499	380.292	80.007	19.995	103.821	19.968	2.270	0.503
599.999	380.551	80.007	19.995	103.821	19.969	2.172	0.497
600.499	380.838	80.007	19.995	103.821	19.969	2.213	0.526
600.999	381.082	80.008	19.994	103.820	19.968	2.242	0.539
601.499	381.329	80.008	19.994	103.821	19.969	2.196	0.511
601.999	381.589	80.006	19.995	103.821	19.968	2.246	0.498
602.499	381.821	80.008	19.994	103.820	19.965	2.448	0.499
602.999	382.093	80.007	19.995	103.819	19.970	2.130	0.498
603.499	382.347	80.007	19.995	103.821	19.966	2.365	0.516
603.999	382.611	80.007	19.994	103.822	19.970	2.086	0.522
604.499	382.862	80.008	19.994	103.823	19.967	2.338	0.516
604.999	383.094	80.007	19.993	103.823	19.970	2.147	0.499
605.499	383.348	80.007	19.995	103.822	19.968	2.226	0.485
605.999	383.601	80.007	19.995	103.821	19.968	2.238	0.496
606.499	383.842	80.008	19.995	103.820	19.969	2.211	0.500
606.999	384.109	80.007	19.994	103.820	19.968	2.262	0.501
607.499	384.346	80.008	19.996	103.820	19.971	2.075	0.506
607.999	384.618	80.008	19.994	103.820	19.968	2.237	0.507
608.499	384.865	80.007	19.995	103.820	19.967	2.308	0.514
608.999	385.145	80.008	19.995	103.820	19.967	2.292	0.523
609.499	385.376	80.009	19.995	103.820	19.965	2.442	0.519
609.999	385.633	80.009	19.994	103.821	19.966	2.362	0.499
610.499	385.887	80.009	19.994	103.821	19.967	2.329	0.500
610.999	386.129	80.009	19.994	103.821	19.968	2.275	0.504
611.499	386.373	80.009	19.994	103.821	19.967	2.305	0.491
611.999	386.649	80.007	19.993	103.821	19.970	2.123	0.503
612.500	386.867	80.009	19.993	103.822	19.968	2.231	0.507
613.000	387.120	80.009	19.995	103.822	19.965	2.461	0.483
613.500	387.375	80.009	19.994	103.822	19.965	2.444	0.490
614.000	387.643	80.008	19.994	103.822	19.965	2.484	0.516
614.500	387.925	80.010	19.993	103.822	19.965	2.473	0.537
614.999	388.168	80.010	19.993	103.821	19.967	2.303	0.537
615.500	388.406	80.009	19.995	103.822	19.971	2.061	0.503
616.000	388.688	80.008	19.993	103.821	19.965	2.426	0.500
616.500	388.915	80.009	19.994	103.821	19.970	2.130	0.514
617.000	389.171	80.009	19.994	103.820	19.965	2.453	0.496
617.500	389.414	80.008	19.994	103.820	19.967	2.345	0.491
618.000	389.679	80.009	19.994	103.820	19.968	2.233	0.503
618.500	389.923	80.009	19.993	103.821	19.968	2.222	0.509
619.000	390.177	80.009	19.993	103.821	19.968	2.259	0.504
619.500	390.400	80.010	19.993	103.824	19.963	2.585	0.487
620.000	390.682	80.009	19.992	103.824	19.966	2.378	0.491
620.499	390.912	80.008	19.993	103.827	19.965	2.451	0.508
620.999	391.217	80.009	19.993	103.827	19.967	2.349	0.523
621.499	391.419	80.009	19.993	103.828	19.967	2.297	0.521
622.000	391.672	80.009	19.993	103.826	19.965	2.486	0.481
622.500	391.951	80.008	19.993	103.826	19.967	2.349	0.493
622.999	392.145	80.008	19.993	103.823	19.963	2.622	0.503
623.499	392.395	80.008	19.993	103.823	19.967	2.345	0.458
623.999	392.678	80.009	19.994	103.823	19.964	2.539	0.489
624.499	392.888	80.007	19.993	103.823	19.966	2.406	0.513
624.999	393.180	80.008	19.993	103.823	19.967	2.321	0.497
625.499	393.426	80.008	19.993	103.823	19.968	2.275	0.520
625.999	393.701	80.008	19.995	103.825	19.964	2.556	0.530
626.499	393.952	80.009	19.996	103.825	19.964	2.494	0.523
626.999	394.160	80.008	19.994	103.826	19.964	2.558	0.492
627.499	394.425	80.008	19.995	103.826	19.965	2.426	0.466
627.999	394.698	80.008	19.994	103.825	19.961	2.701	0.505
628.499	394.968	80.009	19.994	103.825	19.961	2.710	0.540
628.999	395.198	80.008	19.995	103.825	19.962	2.629	0.521
629.499	395.452	80.008	19.993	103.825	19.964	2.549	0.492
629.999	395.713	80.006	19.995	103.825	19.966	2.356	0.500
630.499	395.979	80.007	19.994	103.825	19.964	2.514	0.521
630.999	396.211	80.008	19.994	103.824	19.963	2.611	0.512
631.500	396.474	80.007	19.994	103.824	19.965	2.431	0.497
632.000	396.697	80.007	19.993	103.824	19.962	2.642	0.491
632.499	396.999	80.007	19.994	103.824	19.963	2.578	0.506
632.999	397.210	80.008	19.995	103.825	19.965	2.437	0.519
633.499	397.448	80.007	19.993	103.825	19.963	2.578	0.481
633.999	397.731	80.007	19.994	103.825	19.966	2.411	0.485
634.499	397.974	80.008	19.995	103.825	19.962	2.690	0.524
635.000	398.216	80.007	19.994	103.825	19.959	2.881	0.505
635.500	398.445	80.007	19.994	103.825	19.961	2.752	0.478
635.999	398.712	80.008	19.993	103.825	19.959	2.846	0.483
636.499	398.967	80.007	19.993	103.824	19.962	2.679	0.509
636.999	399.202	80.007	19.995	103.824	19.962	2.629	0.506
637.499	399.481	80.008	19.993	103.824	19.962	2.635	0.502
637.999	399.721	80.008	19.993	103.825	19.964	2.550	0.516
638.499	399.946	80.008	19.994	103.824	19.962	2.655	0.492
638.999	400.248	80.008	19.994	103.825	19.963	2.616	0.496
639.499	400.472	80.009	19.993	103.825	19.965	2.483	0.527
639.999	400.701	80.008	19.993	103.825	19.962	2.646	0.489
640.499	400.925	80.009	19.992	103.825	19.960	2.809	0.453
640.999	401.211	80.008	19.994	103.825	19.963	2.572	0.482
641.499	401.451	80.008	19.994	103.825	19.962	2.677	0.517
641.999	401.685	80.009	19.992	103.825	19.961	2.727	0.500
642.499	401.938	80.010	19.992	103.825	19.962	2.653	0.481
642.999	402.203	80.009	19.992	103.825	19.959	2.882	0.503
643.499	402.461	80.009	19.992	103.825	19.963	2.600	0.521
643.999	402.694	80.009	19.993	103.825	19.962	2.631	0.507
644.499	402.973	80.009	19.992	103.826	19.962	2.695	0.501
644.999	403.182	80.009	19.993	103.826	19.960	2.782	0.499
645.499	403.429	80.007	19.993	103.825	19.962	2.649	0.472
645.999	403.682	80.008	19.993	103.826	19.960	2.800	0.479
646.499	403.980	80.009	19.994	103.825	19.962	2.631	0.526
646.999	404.224	80.010	19.992	103.825	19.963	2.567	0.546
647.499	404.421	80.010	19.994	103.825	19.962	2.688	0.491
647.999	404.662	80.009	19.992	103.825	19.961	2.699	0.439
648.499	404.935	80.010	19.993	103.824	19.965	2.475	0.476
648.999	405.189	80.009	19.992	103.824	19.961	2.701	0.521
649.499	405.381	80.009	19.993	103.824	19.962	2.633	0.487
649.999	405.668	80.009	19.993	103.823	19.964	2.532	0.462
650.499	405.936	80.009	19.993	103.823	19.961	2.712	0.517
650.999	406.187	80.010	19.994	103.823	19.963	2.604	0.537
651.499	406.432	80.010	19.994	103.823	19.960	2.826	0.508
651.999	406.678	80.009	19.993	103.822	19.963	2.609	0.494
652.499	406.947	80.009	19.993	103.822	19.961	2.721	0.503
652.999	407.153	80.008	19.992	103.822	19.963	2.576	0.495
653.499	407.420	80.009	19.992	103.821	19.962	2.657	0.474
654.000	407.662	80.009	19.993	103.821	19.961	2.741	0.491
654.500	407.923	80.009	19.993	103.820	19.962	2.664	0.506
654.999	408.191	80.009	19.994	103.820	19.961	2.721	0.516
655.499	408.422	80.009	19.994	103.819	19.961	2.756	0.514
655.999	408.653	80.009	19.993	103.820	19.959	2.879	0.481
656.499	408.940	80.008	19.994	103.820	19.963	2.609	0.491
656.999	409.188	80.009	19.993	103.820	19.959	2.870	0.527
657.499	409.425	80.008	19.993	103.820	19.960	2.815	0.510
657.999	409.690	80.010	19.994	103.821	19.960	2.782	0.493
658.499	409.910	80.009	19.994	103.821	19.960	2.793	0.493
658.999	410.218	80.009	19.993	103.821	19.963	2.565	0.506
659.499	410.448	80.010	19.993	103.821	19.962	2.670	0.533
659.999	410.683	80.010	19.994	103.821	19.963	2.594	0.502
660.499	410.907	80.010	19.995	103.822	19.961	2.756	0.462
660.999	411.185	80.009	19.994	103.822	19.962	2.686	0.480
661.499	411.469	80.009	19.994	103.822	19.961	2.752	0.532
661.999	411.679	80.008	19.993	103.821	19.963	2.598	0.528
662.499	411.913	80.009	19.994	103.821	19.963	2.587	0.469
662.999	412.211	80.010	19.994	103.820	19.962	2.629	0.488
663.500	412.431	80.009	19.995	103.820	19.960	2.796	0.525
664.000	412.700	80.010	19.993	103.820	19.962	2.655	0.504
664.500	412.947	80.009	19.995	103.820	19.963	2.593	0.502
664.999	413.183	80.009	19.994	103.820	19.964	2.559	0.500
665.499	413.431	80.010	19.994	103.822	19.964	2.514	0.483
665.999	413.665	80.010	19.993	103.822	19.962	2.633	0.483
666.499	413.893	80.009	19.994	103.822	19.962	2.675	0.472
666.999	414.153	80.010	19.994	103.822	19.962	2.655	0.475
667.499	414.420	80.011	19.994	103.822	19.962	2.679	0.507
667.999	414.650	80.010	19.995	103.820	19.960	2.798	0.512
668.499	414.954	80.011	19.994	103.820	19.965	2.475	0.516
668.999	415.181	80.010	19.994	103.819	19.960	2.831	0.533
669.499	415.421	80.011	19.993	103.819	19.965	2.477	0.499
669.999	415.663	80.011	19.994	103.819	19.965	2.477	0.474
670.499	415.927	80.011	19.994	103.819	19.959	2.844	0.494
670.999	416.153	80.011	19.993	103.819	19.960	2.829	0.498
671.499	416.414	80.010	19.993	103.818	19.959	2.840	0.489
671.999	416.667	80.011	19.994	103.818	19.959	2.837	0.500
672.499	416.912	80.011	19.994	103.817	19.957	3.020	0.506
672.999	417.164	80.010	19.993	103.817	19.958	2.950	0.497
673.499	417.454	80.011	19.994	103.818	19.957	3.022	0.520
673.999	417.704	80.009	19.993	103.818	19.960	2.813	0.541
674.499	417.931	80.009	19.994	103.818	19.959	2.901	0.508
674.999	418.206	80.011	19.993	103.819	19.961	2.763	0.490
675.499	418.449	80.009	19.994	103.819	19.960	2.796	0.510
675.999	418.685	80.009	19.993	103.819	19.960	2.833	0.499
676.499	418.950	80.009	19.994	103.818	19.959	2.864	0.490
676.999	419.236	80.010	19.993	103.818	19.958	2.965	0.526
677.499	419.469	80.009	19.993	103.818	19.960	2.796	0.535
677.999	419.720	80.008	19.993	103.818	19.958	2.916	0.502
678.500	419.984	80.008	19.993	103.818	19.961	2.743	0.500
679.000	420.241	80.008	19.993	103.819	19.960	2.791	0.518
679.499	420.517	80.009	19.994	103.819	19.960	2.811	0.527
679.999	420.720	80.009	19.993	103.820	19.963	2.585	0.506
680.499	421.015	80.007	19.993	103.820	19.959	2.899	0.488
680.999	421.264	80.008	19.993	103.821	19.962	2.640	0.521
681.499	421.557	80.007	19.994	103.821	19.964	2.510	0.544
681.999	421.757	80.008	19.993	103.822	19.964	2.527	0.518
682.499	422.030	80.009	19.995	103.821	19.961	2.699	0.482
682.999	422.271	80.009	19.993	103.821	19.961	2.712	0.493
683.499	422.548	80.009	19.994	103.821	19.959	2.850	0.516
683.999	422.790	80.008	19.995	103.821	19.961	2.752	0.519
684.499	423.023	80.007	19.994	103.822	19.964	2.517	0.497
684.999	423.263	80.008	19.994	103.823	19.961	2.728	0.474
685.499	423.517	80.007	19.993	103.822	19.961	2.717	0.484
685.999	423.771	80.006	19.994	103.823	19.963	2.563	0.501
686.499	424.051	80.007	19.995	103.823	19.963	2.594	0.521
686.999	424.310	80.006	19.995	103.824	19.961	2.752	0.537
687.499	424.577	80.007	19.995	103.824	19.962	2.672	0.533
687.999	424.796	80.006	19.995	103.825	19.962	2.694	0.506
688.499	425.001	80.006	19.995	103.825	19.960	2.789	0.454
688.999	425.293	80.007	19.995	103.825	19.961	2.747	0.460
689.500	425.567	80.006	19.995	103.825	19.960	2.767	0.532
690.000	425.832	80.006	19.995	103.825	19.963	2.578	0.553
690.499	426.109	80.007	19.995	103.825	19.964	2.539	0.541
690.999	426.333	80.007	19.995	103.824	19.963	2.618	0.522
691.499	426.630	80.006	19.994	103.823	19.964	2.534	0.511
691.999	426.841	80.006	19.994	103.823	19.966	2.417	0.514
692.499	427.102	80.008	19.994	103.823	19.962	2.695	0.490
692.999	427.380	80.006	19.996	103.823	19.958	2.936	0.506
693.499	427.644	80.006	19.994	103.823	19.961	2.739	0.540
693.999	427.915	80.008	19.995	103.824	19.963	2.606	0.538
694.500	428.151	80.007	19.994	103.824	19.962	2.694	0.521
695.000	428.443	80.007	19.994	103.824	19.962	2.650	0.518
695.499	428.704	80.007	19.995	103.824	19.963	2.624	0.540
695.999	428.939	80.008	19.995	103.824	19.964	2.514	0.524
696.499	429.180	80.008	19.996	103.824	19.961	2.699	0.486
696.999	429.463	80.007	19.994	103.823	19.962	2.692	0.500
697.499	429.680	80.007	19.995	103.823	19.961	2.714	0.512
697.999	429.967	80.007	19.994	103.823	19.964	2.519	0.502
698.499	430.269	80.007	19.994	103.823	19.962	2.695	0.547
699.000	430.502	80.008	19.995	103.823	19.962	2.664	0.563
699.500	430.739	80.007	19.994	103.823	19.962	2.692	0.503
700.000	430.995	80.008	19.996	103.823	19.960	2.822	0.482
700.500	431.261	80.006	19.995	103.823	19.957	3.002	0.507
700.999	431.499	80.007	19.995	103.823	19.958	2.916	0.513
701.500	431.771	80.007	19.996	103.823	19.959	2.844	0.507
702.000	432.028	80.007	19.993	103.823	19.960	2.828	0.520
702.499	432.294	80.006	19.996	103.824	19.963	2.628	0.526
702.999	432.549	80.008	19.995	103.824	19.960	2.826	0.522
703.499	432.821	80.006	19.994	103.825	19.962	2.690	0.524
703.999	433.083	80.008	19.994	103.825	19.959	2.894	0.530
704.499	433.324	80.007	19.993	103.825	19.961	2.758	0.519
704.999	433.585	80.008	19.994	103.825	19.960	2.794	0.502
705.499	433.863	80.008	19.992	103.825	19.960	2.794	0.520
705.999	434.127	80.008	19.994	103.825	19.962	2.681	0.541
706.499	434.367	80.007	19.993	103.825	19.962	2.651	0.523
707.000	434.613	80.008	19.994	103.825	19.962	2.662	0.495
707.500	434.893	80.008	19.993	103.825	19.962	2.666	0.506
707.999	435.139	80.006	19.994	103.825	19.963	2.627	0.527
708.500	435.399	80.007	19.993	103.826	19.961	2.743	0.516
709.000	435.655	80.008	19.993	103.826	19.961	2.730	0.510
709.500	435.937	80.008	19.993	103.827	19.965	2.471	0.527
709.999	436.163	80.007	19.994	103.827	19.962	2.677	0.523
710.499	436.417	80.007	19.995	103.826	19.959	2.873	0.494
710.999	436.673	80.008	19.994	103.825	19.960	2.793	0.495
711.499	436.932	80.007	19.993	103.825	19.962	2.688	0.512
711.999	437.194	80.008	19.994	103.825	19.960	2.796	0.518
712.499	437.445	80.007	19.993	103.825	19.964	2.550	0.517
712.999	437.720	80.008	19.994	103.825	19.964	2.519	0.519
713.499	437.953	80.008	19.994	103.824	19.962	2.644	0.517
713.999	438.204	80.007	19.993	103.824	19.963	2.569	0.496
714.499	438.459	80.007	19.994	103.824	19.962	2.692	0.495
714.999	438.730	80.007	19.993	103.823	19.960	2.805	0.516
715.499	438.959	80.007	19.994	103.822	19.960	2.792	0.512
715.999	439.264	80.009	19.994	103.822	19.961	2.699	0.517
716.499	439.490	80.008	19.994	103.822	19.963	2.609	0.533
716.999	439.748	80.009	19.994	103.820	19.961	2.704	0.508
717.499	440.004	80.007	19.993	103.819	19.961	2.736	0.499
717.999	440.273	80.007	19.995	103.820	19.963	2.605	0.519
718.499	440.523	80.009	19.994	103.820	19.963	2.602	0.522
718.999	440.803	80.008	19.993	103.820	19.962	2.646	0.525
719.500	441.028	80.008	19.993	103.821	19.965	2.424	0.518
720.000	441.320	80.010	19.994	103.822	19.964	2.497	0.511
720.500	441.569	80.008	19.993	103.821	19.965	2.477	0.528
720.999	441.811	80.009	19.994	103.821	19.960	2.804	0.516
721.499	442.050	80.009	19.993	103.821	19.963	2.602	0.486
721.999	442.326	80.009	19.994	103.821	19.962	2.635	0.498
722.499	442.566	80.008	19.994	103.820	19.964	2.519	0.515
722.999	442.855	80.010	19.994	103.820	19.963	2.609	0.522
723.499	443.095	80.010	19.996	103.820	19.962	2.647	0.529
723.999	443.342	80.009	19.994	103.820	19.962	2.684	0.509
724.499	443.559	80.009	19.994	103.820	19.962	2.673	0.476
724.999	443.848	80.009	19.994	103.819	19.961	2.750	0.485
725.499	444.098	80.010	19.994	103.819	19.964	2.532	0.523
725.999	444.359	80.010	19.994	103.818	19.964	2.517	0.525
726.499	444.610	80.009	19.994	103.817	19.961	2.710	0.512
726.999	444.871	80.009	19.994	103.818	19.964	2.528	0.512
727.499	445.103	80.010	19.994	103.817	19.962	2.653	0.503
727.999	445.379	80.010	19.994	103.818	19.963	2.627	0.500
728.499	445.628	80.010	19.994	103.819	19.965	2.466	0.516
728.999	445.866	80.009	19.992	103.820	19.960	2.800	0.506
729.499	446.152	80.009	19.993	103.820	19.960	2.765	0.505
729.999	446.403	80.009	19.993	103.820	19.959	2.855	0.531
730.499	446.630	80.009	19.994	103.820	19.959	2.886	0.508
730.999	446.909	80.009	19.994	103.820	19.961	2.712	0.492
731.499	447.152	80.009	19.994	103.820	19.960	2.824	0.514
731.999	447.411	80.010	19.994	103.820	19.960	2.796	0.512
732.499	447.654	80.010	19.994	103.819	19.962	2.677	0.502
732.999	447.939	80.010	19.994	103.819	19.962	2.695	0.514
733.499	448.207	80.009	19.993	103.817	19.962	2.660	0.541
733.999	448.458	80.010	19.993	103.816	19.962	2.686	0.536
734.499	448.722	80.008	19.994	103.816	19.963	2.596	0.517
734.999	448.955	80.008	19.994	103.818	19.963	2.576	0.506
735.499	449.215	80.009	19.994	103.819	19.962	2.637	0.495
735.999	449.497	80.008	19.993	103.822	19.963	2.596	0.518
736.499	449.703	80.009	19.993	103.823	19.964	2.525	0.515
737.000	449.978	80.009	19.993	103.823	19.963	2.574	0.484
737.500	450.226	80.010	19.993	103.823	19.964	2.495	0.501
738.000	450.463	80.008	19.993	103.822	19.965	2.490	0.504
738.500	450.762	80.008	19.996	103.821	19.966	2.405	0.511
738.999	450.982	80.009	19.995	103.822	19.966	2.418	0.527
739.499	451.241	80.009	19.995	103.821	19.965	2.488	0.499
739.999	451.485	80.009	19.994	103.821	19.962	2.659	0.491
740.499	451.757	80.009	19.994	103.821	19.966	2.376	0.509
740.999	451.997	80.011	19.994	103.821	19.963	2.576	0.514
741.499	452.255	80.009	19.994	103.821	19.964	2.532	0.505
741.999	452.497	80.009	19.994	103.821	19.962	2.631	0.499
742.499	452.772	80.009	19.994	103.822	19.966	2.413	0.509
742.999	452.995	80.010	19.993	103.822	19.967	2.327	0.507
743.499	453.254	80.009	19.993	103.822	19.969	2.209	0.490
744.000	453.510	80.009	19.994	103.822	19.964	2.506	0.499
744.500	453.784	80.009	19.994	103.822	19.967	2.321	0.522
745.000	454.011	80.010	19.994	103.821	19.964	2.514	0.515
745.500	454.276	80.010	19.992	103.821	19.967	2.354	0.496
745.999	454.535	80.010	19.994	103.822	19.967	2.297	0.508
746.499	454.784	80.011	19.995	103.822	19.965	2.471	0.516
746.999	455.036	80.010	19.995	103.822	19.968	2.251	0.504
747.499	455.288	80.010	19.996	103.822	19.966	2.409	0.502
747.999	455.560	80.010	19.994	103.822	19.967	2.330	0.514
748.499	455.821	80.010	19.994	103.822	19.966	2.418	0.528
748.999	456.072	80.011	19.994	103.822	19.966	2.413	0.523
749.499	456.336	80.012	19.993	103.821	19.964	2.508	0.514
749.999	456.575	80.011	19.996	103.820	19.965	2.459	0.509
750.499	456.844	80.011	19.993	103.820	19.965	2.475	0.505
750.999	457.089	80.011	19.993	103.820	19.964	2.545	0.511
751.499	457.331	80.010	19.994	103.821	19.963	2.616	0.501
751.999	457.582	80.011	19.993	103.822	19.964	2.537	0.490
752.499	457.860	80.010	19.993	103.822	19.965	2.455	0.511
752.999	458.120	80.011	19.994	103.823	19.964	2.543	0.533
753.500	458.365	80.008	19.994	103.822	19.964	2.497	0.521
754.000	458.611	80.010	19.993	103.821	19.964	2.502	0.498
754.499	458.886	80.010	19.995	103.820	19.964	2.502	0.506
754.999	459.137	80.008	19.994	103.820	19.962	2.642	0.524
755.499	459.361	80.010	19.995	103.818	19.963	2.567	0.501
755.999	459.630	80.009	19.994	103.818	19.964	2.501	0.484
756.499	459.895	80.009	19.994	103.817	19.963	2.563	0.514
756.999	460.125	80.009	19.995	103.817	19.962	2.629	0.515
757.499	460.422	80.009	19.994	103.815	19.964	2.538	0.511
757.999	460.674	80.008	19.994	103.817	19.966	2.405	0.537
758.499	460.907	80.009	19.994	103.817	19.966	2.385	0.517
758.999	461.177	80.008	19.995	103.817	19.962	2.657	0.494
759.499	461.382	80.008	19.995	103.816	19.963	2.565	0.489
759.999	461.651	80.009	19.994	103.817	19.966	2.385	0.475
760.499	461.908	80.007	19.994	103.817	19.966	2.369	0.500
760.999	462.182	80.007	19.994	103.818	19.966	2.374	0.528
761.499	462.423	80.008	19.995	103.819	19.966	2.405	0.523
761.999	462.657	80.007	19.994	103.818	19.968	2.277	0.495
762.500	462.969	80.008	19.995	103.812	19.966	2.407	0.511
763.000	463.193	80.008	19.993	103.808	19.969	2.203	0.541
763.500	463.469	80.008	19.994	103.803	19.965	2.436	0.518
763.999	463.687	80.008	19.994	103.802	19.964	2.504	0.497
764.500	463.936	80.008	19.994	103.804	19.963	2.583	0.480
765.000	464.203	80.008	19.994	103.810	19.965	2.429	0.491
765.499	464.458	80.008	19.995	103.814	19.965	2.429	0.519
765.999	464.689	80.008	19.993	103.815	19.964	2.492	0.504
766.499	464.931	80.008	19.995	103.817	19.965	2.462	0.479
766.999	465.192	80.007	19.993	103.818	19.966	2.381	0.488
767.499	465.458	80.008	19.994	103.819	19.965	2.480	0.515
768.000	465.710	80.007	19.994	103.819	19.962	2.671	0.522
768.500	465.973	80.007	19.994	103.822	19.965	2.460	0.516
768.999	466.222	80.008	19.993	103.821	19.965	2.480	0.513
769.499	466.454	80.007	19.994	103.821	19.963	2.570	0.497
769.999	466.713	80.007	19.994	103.819	19.966	2.398	0.486
770.499	466.971	80.008	19.993	103.818	19.965	2.455	0.504
771.000	467.250	80.008	19.995	103.818	19.961	2.741	0.528
771.500	467.494	80.007	19.993	103.819	19.963	2.587	0.530
771.999	467.735	80.008	19.994	103.818	19.965	2.480	0.504
772.500	468.014	80.007	19.994	103.818	19.967	2.293	0.503
773.000	468.269	80.008	19.994	103.817	19.963	2.578	0.527
773.500	468.526	80.007	19.994	103.818	19.964	2.500	0.523
773.999	468.772	80.007	19.994	103.815	19.966	2.398	0.508
774.500	469.045	80.008	19.994	103.815	19.966	2.401	0.511
775.000	469.314	80.007	19.994	103.817	19.965	2.464	0.530
775.500	469.522	80.008	19.994	103.819	19.967	2.328	0.509
775.999	469.831	80.007	19.993	103.819	19.963	2.623	0.497
776.499	470.042	80.008	19.994	103.820	19.963	2.566	0.518
776.999	470.319	80.009	19.994	103.818	19.968	2.225	0.504
777.499	470.579	80.007	19.994	103.817	19.964	2.541	0.513
777.999	470.826	80.007	19.994	103.813	19.965	2.480	0.523
778.499	471.080	80.007	19.996	103.805	19.965	2.438	0.504
778.999	471.306	80.007	19.994	103.801	19.968	2.267	0.490
779.499	471.592	80.009	19.995	103.801	19.966	2.364	0.496
779.999	471.822	80.008	19.994	103.799	19.965	2.425	0.514
780.499	472.071	80.009	19.994	103.801	19.967	2.343	0.497
780.999	472.309	80.009	19.994	103.808	19.967	2.354	0.483
781.500	472.587	80.008	19.995	103.813	19.965	2.425	0.502
782.000	472.841	80.007	19.994	103.813	19.962	2.664	0.524
782.500	473.135	80.006	19.995	103.815	19.965	2.484	0.540
782.999	473.381	80.008	19.995	103.812	19.967	2.295	0.544
783.499	473.621	80.008	19.994	103.809	19.967	2.332	0.513
783.999	473.936	80.007	19.995	103.806	19.966	2.420	0.521
784.499	474.148	80.007	19.995	103.804	19.967	2.350	0.541
784.999	474.415	80.008	19.995	103.805	19.967	2.321	0.503
785.500	474.720	80.006	19.995	103.807	19.967	2.317	0.526
786.000	474.957	80.009	19.995	103.808	19.967	2.330	0.557
786.500	475.200	80.007	19.994	103.808	19.964	2.548	0.511
787.000	475.496	80.008	19.995	103.806	19.967	2.321	0.509
787.500	475.730	80.007	19.995	103.801	19.967	2.315	0.535
787.999	475.968	80.007	19.995	103.800	19.968	2.279	0.501
788.500	476.249	80.008	19.994	103.799	19.965	2.469	0.495
789.000	476.523	80.007	19.995	103.798	19.965	2.433	0.537
789.500	476.759	80.007	19.995	103.798	19.963	2.568	0.532
790.000	477.001	80.006	19.995	103.799	19.965	2.475	0.494
790.500	477.253	80.006	19.996	103.796	19.966	2.412	0.487
791.000	477.529	80.008	19.995	103.796	19.965	2.462	0.511
791.500	477.771	80.007	19.995	103.801	19.967	2.293	0.522
791.999	478.030	80.007	19.994	103.803	19.967	2.335	0.510
792.499	478.315	80.008	19.994	103.805	19.966	2.418	0.523
792.999	478.547	80.008	19.994	103.806	19.966	2.396	0.530
793.499	478.799	80.008	19.995	103.804	19.967	2.352	0.500
793.999	479.063	80.007	19.994	103.803	19.966	2.357	0.500
794.499	479.297	80.008	19.994	103.802	19.966	2.368	0.508
794.999	479.580	80.008	19.994	103.803	19.964	2.491	0.508
795.499	479.834	80.008	19.994	103.805	19.966	2.400	0.527
795.999	480.073	80.009	19.994	103.808	19.967	2.326	0.515
796.499	480.341	80.008	19.994	103.806	19.967	2.335	0.500
796.999	480.603	80.008	19.995	103.807	19.968	2.260	0.519
797.499	480.871	80.008	19.994	103.806	19.966	2.359	0.530
797.999	481.155	80.008	19.995	103.807	19.967	2.297	0.541
798.499	481.372	80.008	19.994	103.806	19.969	2.183	0.526
798.999	481.619	80.009	19.993	103.807	19.968	2.253	0.483
799.499	481.881	80.009	19.994	103.804	19.967	2.293	0.487
799.999	482.110	80.009	19.994	103.804	19.971	2.023	0.500
800.499	482.369	80.009	19.994	103.801	19.971	2.062	0.489
800.999	482.652	80.009	19.994	103.800	19.966	2.359	0.515
801.499	482.914	80.009	19.994	103.797	19.965	2.433	0.544
801.999	483.163	80.010	19.993	103.799	19.967	2.343	0.528
802.499	483.415	80.008	19.994	103.799	19.967	2.290	0.506
802.999	483.671	80.009	19.994	103.800	19.966	2.372	0.504
803.500	483.910	80.009	19.993	103.800	19.966	2.420	0.501
804.000	484.162	80.009	19.994	103.803	19.967	2.292	0.493
804.500	484.410	80.011	19.994	103.805	19.969	2.203	0.496
805.000	484.685	80.010	19.994	103.805	19.967	2.295	0.512
805.500	484.952	80.010	19.992	103.803	19.969	2.202	0.532
806.000	485.189	80.008	19.994	103.804	19.969	2.213	0.523
806.500	485.450	80.011	19.995	103.806	19.967	2.304	0.501
807.000	485.675	80.009	19.994	103.808	19.968	2.271	0.491
807.500	485.999	80.011	19.995	103.809	19.973	1.943	0.517
807.999	486.207	80.010	19.994	103.811	19.967	2.304	0.540
808.499	486.419	80.010	19.994	103.811	19.966	2.357	0.476
808.999	486.704	80.009	19.994	103.809	19.970	2.124	0.459
809.500	486.984	80.010	19.993	103.806	19.972	1.954	0.531
810.000	487.208	80.010	19.993	103.806	19.970	2.117	0.535
810.499	487.475	80.011	19.993	103.805	19.969	2.183	0.498
810.999	487.715	80.010	19.993	103.806	19.971	2.033	0.499
811.499	487.977	80.009	19.994	103.808	19.969	2.203	0.505
811.999	488.222	80.010	19.993	103.811	19.963	2.568	0.505
812.499	488.488	80.009	19.994	103.813	19.966	2.381	0.509
812.999	488.765	80.010	19.994	103.817	19.968	2.222	0.527
813.499	488.980	80.010	19.992	103.818	19.970	2.115	0.518
813.999	489.269	80.009	19.993	103.818	19.969	2.157	0.498
814.499	489.536	80.009	19.994	103.816	19.967	2.293	0.529
814.999	489.777	80.009	19.994	103.816	19.972	2.009	0.532
815.499	490.013	80.009	19.994	103.815	19.972	1.983	0.493
815.999	490.276	80.008	19.995	103.814	19.972	1.981	0.488
816.499	490.517	80.007	19.993	103.814	19.969	2.150	0.501
816.999	490.772	80.009	19.994	103.814	19.969	2.166	0.500
817.499	491.004	80.009	19.994	103.813	19.970	2.111	0.492
817.999	491.242	80.008	19.994	103.812	19.972	1.992	0.479
818.499	491.549	80.010	19.993	103.808	19.970	2.128	0.508
818.999	491.812	80.010	19.993	103.807	19.970	2.128	0.558
819.499	492.067	80.009	19.995	103.805	19.968	2.222	0.544
819.999	492.290	80.010	19.993	103.803	19.968	2.245	0.498
820.499	492.577	80.008	19.994	103.803	19.968	2.251	0.494
820.999	492.832	80.009	19.994	103.805	19.968	2.286	0.526
821.499	493.121	80.009	19.994	103.805	19.968	2.269	0.543
821.999	493.323	80.009	19.992	103.803	19.967	2.326	0.517
822.499	493.593	80.009	19.993	103.805	19.967	2.291	0.482
822.999	493.870	80.009	19.993	103.805	19.969	2.168	0.510
823.499	494.144	80.010	19.993	103.809	19.969	2.207	0.549
823.999	494.381	80.011	19.992	103.808	19.969	2.161	0.531
824.499	494.631	80.010	19.993	103.809	19.966	2.403	0.499
824.999	494.886	80.011	19.993	103.805	19.968	2.253	0.496
825.499	495.189	80.010	19.993	103.801	19.966	2.355	0.532
825.999	495.444	80.010	19.994	103.794	19.968	2.231	0.558
826.499	495.660	80.011	19.993	103.792	19.966	2.365	0.515
826.999	495.913	80.011	19.992	103.790	19.967	2.304	0.470
827.499	496.176	80.011	19.992	103.790	19.969	2.154	0.492
827.999	496.402	80.011	19.993	103.789	19.972	1.954	0.503
828.499	496.662	80.009	19.993	103.789	19.969	2.174	0.488
828.999	496.938	80.010	19.993	103.791	19.968	2.233	0.510
829.499	497.194	80.011	19.993	103.796	19.970	2.106	0.534
829.999	497.415	80.011	19.992	103.800	19.968	2.258	0.505
830.499	497.705	80.011	19.992	103.802	19.969	2.189	0.494
830.999	497.972	80.010	19.993	103.805	19.967	2.321	0.534
831.499	498.235	80.011	19.992	103.805	19.970	2.086	0.543
831.999	498.482	80.011	19.992	103.801	19.969	2.157	0.520
832.499	498.702	80.011	19.993	103.800	19.967	2.300	0.489
832.999	499.012	80.011	19.992	103.802	19.969	2.154	0.499
833.499	499.218	80.010	19.994	103.799	19.967	2.333	0.523
833.999	499.468	80.011	19.992	103.797	19.971	2.064	0.486
834.499	499.718	80.010	19.993	103.797	19.971	2.038	0.478
834.999	499.981	80.009	19.992	103.794	19.972	1.948	0.507
835.499	500.216	80.010	19.992	103.794	19.972	1.985	0.506
835.999	500.470	80.010	19.993	103.796	19.972	1.967	0.494
836.499	500.712	80.010	19.992	103.801	19.972	1.958	0.492
836.999	501.014	80.009	19.994	103.805	19.970	2.112	0.520
837.499	501.291	80.008	19.994	103.807	19.973	1.936	0.561
838.000	501.516	80.011	19.993	103.809	19.972	2.000	0.541
838.500	501.781	80.009	19.993	103.809	19.972	1.987	0.496
838.999	502.018	80.009	19.993	103.807	19.969	2.179	0.496
839.499	502.236	80.008	19.993	103.806	19.970	2.135	0.478
839.999	502.513	80.009	19.993	103.810	19.971	2.053	0.475
840.499	502.775	80.008	19.993	103.810	19.971	2.062	0.517
840.999	503.007	80.010	19.993	103.811	19.968	2.223	0.517
841.499	503.281	80.008	19.994	103.810	19.973	1.942	0.500
841.999	503.543	80.008	19.993	103.807	19.970	2.146	0.521
842.499	503.810	80.008	19.994	103.801	19.972	2.001	0.532
842.999	503.999	80.009	19.993	103.797	19.972	2.003	0.492
843.499	504.313	80.009	19.993	103.795	19.969	2.187	0.479
843.999	504.523	80.008	19.993	103.795	19.973	1.897	0.514
844.499	504.790	80.009	19.993	103.794	19.973	1.901	0.501
844.999	505.043	80.009	19.994	103.795	19.972	1.952	0.499
845.499	505.295	80.009	19.994	103.800	19.969	2.154	0.512
845.999	505.541	80.008	19.993	103.802	19.973	1.924	0.501
846.499	505.825	80.007	19.994	103.806	19.971	2.078	0.514
846.999	506.033	80.009	19.994	103.810	19.971	2.042	0.511
847.499	506.300	80.008	19.994	103.813	19.970	2.135	0.483
848.000	506.558	80.007	19.993	103.815	19.972	2.003	0.500
848.500	506.840	80.009	19.994	103.817	19.974	1.849	0.533
848.999	507.079	80.008	19.994	103.812	19.972	1.987	0.530
849.499	507.331	80.008	19.994	103.809	19.973	1.928	0.506
849.999	507.602	80.008	19.994	103.807	19.971	2.016	0.507
850.499	507.853	80.008	19.996	103.801	19.971	2.066	0.522
850.999	508.106	80.008	19.995	103.795	19.972	1.988	0.513
851.500	508.363	80.009	19.994	103.795	19.972	1.979	0.508
852.000	508.648	80.009	19.995	103.794	19.970	2.148	0.526
852.500	508.896	80.008	19.994	103.791	19.969	2.200	0.537
853.000	509.154	80.009	19.994	103.793	19.970	2.082	0.520
853.499	509.426	80.009	19.994	103.795	19.971	2.080	0.518
853.999	509.625	80.010	19.994	103.799	19.972	1.972	0.500
854.499	509.916	80.008	19.994	103.802	19.970	2.084	0.481
854.999	510.174	80.009	19.994	103.804	19.971	2.058	0.520
855.499	510.416	80.007	19.993	103.804	19.971	2.075	0.524
855.999	510.670	80.008	19.994	103.802	19.975	1.800	0.498
856.499	510.935	80.009	19.993	103.801	19.974	1.844	0.508
856.999	511.154	80.008	19.993	103.800	19.972	1.946	0.501
857.499	511.441	80.009	19.994	103.799	19.973	1.924	0.495
857.999	511.694	80.009	19.992	103.797	19.972	1.963	0.523
858.499	511.928	80.010	19.993	103.797	19.972	2.009	0.513
858.999	512.185	80.010	19.992	103.799	19.972	1.950	0.489
859.499	512.448	80.009	19.993	103.797	19.972	1.990	0.506
859.999	512.717	80.010	19.993	103.800	19.973	1.941	0.526
860.499	512.969	80.009	19.992	103.800	19.967	2.344	0.526
860.999	513.216	80.009	19.993	103.801	19.974	1.829	0.510
861.499	513.490	80.009	19.993	103.798	19.970	2.084	0.510
861.999	513.752	80.008	19.993	103.798	19.972	1.970	0.529
862.499	514.046	80.010	19.993	103.800	19.969	2.159	0.546
863.000	514.273	80.008	19.993	103.806	19.968	2.243	0.539
863.500	514.555	80.008	19.994	103.806	19.968	2.240	0.515
863.999	514.787	80.008	19.995	103.807	19.971	2.047	0.511
864.499	515.086	80.008	19.995	103.808	19.972	1.998	0.523
864.999	515.339	80.007	19.994	103.805	19.969	2.179	0.541
865.499	515.573	80.008	19.994	103.798	19.969	2.187	0.519
866.000	515.823	80.007	19.994	103.798	19.971	2.055	0.486
866.500	516.139	80.009	19.996	103.801	19.973	1.928	0.525
866.999	516.325	80.009	19.996	103.803	19.969	2.209	0.534
867.499	516.621	80.007	19.995	103.807	19.970	2.117	0.492
867.999	516.856	80.009	19.994	103.809	19.971	2.053	0.507
868.499	517.156	80.009	19.993	103.807	19.971	2.075	0.534
868.999	517.367	80.008	19.993	103.804	19.972	2.009	0.523
869.499	517.632	80.008	19.994	103.800	19.970	2.115	0.493
869.999	517.942	80.008	19.993	103.795	19.971	2.038	0.525
870.499	518.160	80.009	19.994	103.796	19.968	2.284	0.551
870.999	518.454	80.008	19.994	103.798	19.972	1.980	0.520
871.499	518.719	80.009	19.994	103.800	19.970	2.113	0.536
871.999	518.944	80.008	19.994	103.798	19.970	2.124	0.525
872.499	519.233	80.006	19.995	103.798	19.973	1.941	0.502
873.000	519.477	80.008	19.995	103.796	19.971	2.020	0.523
873.500	519.719	80.007	19.994	103.794	19.969	2.159	0.509
873.999	520.012	80.007	19.995	103.794	19.971	2.073	0.510
874.499	520.269	80.007	19.994	103.798	19.971	2.033	0.543
874.999	520.532	80.007	19.994	103.801	19.971	2.073	0.535
875.500	520.767	80.007	19.994	103.802	19.972	1.981	0.509
876.000	521.005	80.007	19.995	103.804	19.972	1.969	0.485
876.499	521.283	80.008	19.994	103.803	19.975	1.778	0.494
876.999	521.553	80.008	19.995	103.802	19.977	1.635	0.532
877.499	521.770	80.007	19.995	103.801	19.971	2.022	0.518
877.999	522.096	80.008	19.995	103.803	19.973	1.936	0.515
878.499	522.284	80.009	19.995	103.802	19.974	1.816	0.528
878.999	522.582	80.008	19.995	103.800	19.971	2.033	0.500
879.499	522.835	80.008	19.996	103.799	19.972	2.010	0.519
879.999	523.106	80.009	19.994	103.797	19.973	1.930	0.538
880.499	523.379	80.007	19.994	103.799	19.973	1.900	0.534
880.999	523.586	80.008	19.994	103.802	19.971	2.029	0.512
881.499	523.893	80.008	19.994	103.807	19.971	2.073	0.497
881.999	524.148	80.009	19.995	103.810	19.972	1.946	0.538
882.499	524.387	80.009	19.993	103.811	19.976	1.730	0.528
882.999	524.654	80.010	19.994	103.811	19.971	2.036	0.500
883.499	524.911	80.009	19.993	103.808	19.971	2.053	0.515
883.999	525.181	80.008	19.994	103.807	19.972	1.959	0.526
884.499	525.463	80.009	19.993	103.807	19.975	1.783	0.539
884.999	525.705	80.009	19.995	103.810	19.975	1.759	0.538
885.500	525.949	80.009	19.995	103.812	19.974	1.842	0.505
886.000	526.216	80.009	19.994	103.814	19.976	1.734	0.498
886.499	526.461	80.009	19.993	103.815	19.970	2.091	0.512
886.999	526.710	80.008	19.994	103.816	19.976	1.691	0.503
887.500	526.960	80.010	19.994	103.816	19.976	1.732	0.496
888.000	527.262	80.009	19.994	103.816	19.972	2.012	0.525
888.499	527.482	80.009	19.994	103.815	19.972	2.011	0.537
888.999	527.763	80.008	19.994	103.812	19.972	1.948	0.512
889.499	528.053	80.009	19.993	103.806	19.971	2.034	0.536
889.999	528.275	80.010	19.994	103.802	19.972	1.968	0.541
890.499	528.571	80.008	19.993	103.798	19.976	1.678	0.515
890.999	528.813	80.010	19.992	103.796	19.976	1.722	0.528
891.499	529.085	80.010	19.993	103.795	19.972	1.990	0.526
892.000	529.322	80.009	19.994	103.796	19.972	1.953	0.511
892.500	529.587	80.009	19.992	103.794	19.971	2.069	0.505
892.999	529.825	80.009	19.994	103.791	19.972	2.012	0.502
893.499	530.100	80.008	19.993	103.792	19.973	1.878	0.508
893.999	530.357	80.009	19.994	103.795	19.971	2.040	0.523
894.499	530.616	80.010	19.993	103.796	19.974	1.842	0.524
894.999	530.893	80.009	19.993	103.798	19.973	1.882	0.526
895.499	531.147	80.007	19.992	103.799	19.975	1.748	0.534
895.999	531.392	80.007	19.994	103.799	19.972	2.005	0.515
896.499	531.646	80.008	19.992	103.798	19.973	1.930	0.499
896.999	531.903	80.008	19.992	103.803	19.974	1.823	0.504
897.499	532.176	80.007	19.993	103.805	19.975	1.742	0.520
897.999	532.428	80.009	19.994	103.807	19.974	1.827	0.528
898.500	532.690	80.009	19.993	103.808	19.973	1.891	0.520
899.000	532.947	80.009	19.993	103.804	19.977	1.651	0.517
899.499	533.204	80.010	19.994	103.799	19.973	1.877	0.517
899.999	533.478	80.010	19.992	103.795	19.974	1.860	0.522
900.499	533.755	80.010	19.994	103.792	19.974	1.822	0.541
901.000	534.002	80.009	19.993	103.788	19.972	1.959	0.537
901.500	534.242	80.010	19.994	103.788	19.973	1.902	0.505
901.999	534.524	80.009	19.993	103.788	19.975	1.807	0.505
902.499	534.785	80.010	19.993	103.790	19.973	1.880	0.532
902.999	535.025	80.010	19.992	103.790	19.973	1.897	0.522
903.499	535.270	80.009	19.992	103.790	19.969	2.180	0.493
903.999	535.541	80.009	19.993	103.790	19.971	2.058	0.501
904.499	535.811	80.009	19.992	103.790	19.974	1.868	0.529
904.999	536.072	80.009	19.993	103.788	19.969	2.192	0.536
905.499	536.307	80.011	19.993	103.789	19.971	2.036	0.513
905.999	536.587	80.010	19.993	103.788	19.973	1.930	0.505
906.499	536.832	80.010	19.994	103.788	19.971	2.058	0.520
906.999	537.103	80.011	19.993	103.788	19.971	2.062	0.520
907.499	537.354	80.010	19.994	103.789	19.969	2.194	0.519
907.999	537.614	80.011	19.992	103.787	19.969	2.150	0.517
908.499	537.864	80.010	19.994	103.787	19.972	1.972	0.511
908.999	538.148	80.010	19.993	103.790	19.970	2.126	0.522
909.499	538.396	80.011	19.993	103.790	19.970	2.109	0.533
909.999	538.610	80.009	19.993	103.794	19.970	2.120	0.497
910.499	538.895	80.011	19.994	103.799	19.972	2.005	0.480
910.999	539.176	80.011	19.992	103.802	19.970	2.086	0.532
911.499	539.394	80.010	19.994	103.800	19.972	1.967	0.533
911.999	539.706	80.011	19.993	103.801	19.972	2.007	0.515
912.499	539.945	80.011	19.992	103.801	19.972	1.956	0.540
912.999	540.216	80.012	19.993	103.803	19.973	1.941	0.531
913.500	540.448	80.011	19.994	103.807	19.973	1.917	0.507
914.000	540.724	80.010	19.995	103.808	19.972	1.955	0.505
914.499	540.985	80.010	19.992	103.810	19.972	1.976	0.523
914.999	541.209	80.009	19.994	103.807	19.972	1.987	0.512
915.499	541.490	80.009	19.992	103.806	19.970	2.102	0.495
915.999	541.767	80.010	19.993	103.805	19.972	1.950	0.531
916.499	542.013	80.010	19.993	103.808	19.971	2.080	0.541
916.999	542.232	80.008	19.993	103.809	19.971	2.060	0.494
917.499	542.529	80.009	19.992	103.811	19.969	2.194	0.491
917.999	542.743	80.007	19.993	103.805	19.971	2.051	0.514
918.499	543.011	80.009	19.993	103.801	19.969	2.214	0.496
918.999	543.269	80.009	19.992	103.797	19.970	2.091	0.504
919.499	543.559	80.008	19.993	103.793	19.968	2.265	0.536
919.999	543.785	80.008	19.993	103.791	19.969	2.190	0.532
920.499	544.040	80.008	19.994	103.793	19.972	2.005	0.499
920.999	544.317	80.008	19.993	103.795	19.970	2.084	0.507
921.499	544.564	80.008	19.993	103.798	19.969	2.210	0.528
921.999	544.801	80.008	19.993	103.803	19.967	2.348	0.504
922.499	545.064	80.008	19.994	103.800	19.969	2.185	0.492
922.999	545.294	80.009	19.994	103.803	19.971	2.043	0.496
923.499	545.571	80.008	19.993	103.802	19.966	2.359	0.500
923.999	545.834	80.010	19.993	103.799	19.970	2.087	0.524
924.499	546.104	80.009	19.993	103.794	19.969	2.170	0.536
924.999	546.339	80.009	19.993	103.799	19.969	2.152	0.519
925.499	546.602	80.008	19.991	103.799	19.971	2.075	0.502
925.999	546.833	80.008	19.995	103.800	19.972	1.975	0.496
926.499	547.140	80.010	19.994	103.803	19.972	1.979	0.516
926.999	547.399	80.009	19.993	103.805	19.970	2.122	0.552
927.499	547.629	80.009	19.994	103.802	19.969	2.177	0.527
927.999	547.902	80.008	19.993	103.801	19.969	2.196	0.496
928.499	548.192	80.009	19.994	103.800	19.972	1.953	0.533
928.999	548.413	80.007	19.994	103.796	19.972	1.964	0.537
929.499	548.676	80.008	19.993	103.794	19.969	2.162	0.498
929.999	548.929	80.008	19.993	103.792	19.972	1.944	0.500
930.499	549.175	80.009	19.993	103.788	19.970	2.126	0.507
930.999	549.424	80.008	19.993	103.786	19.971	2.065	0.497
931.499	549.691	80.008	19.994	103.790	19.974	1.858	0.506
932.000	549.949	80.009	19.993	103.792	19.967	2.335	0.521
932.500	550.178	80.008	19.994	103.797	19.971	2.034	0.506
932.999	550.479	80.008	19.994	103.798	19.972	1.983	0.508
933.499	550.758	80.008	19.994	103.798	19.971	2.049	0.555
933.999	550.969	80.008	19.993	103.796	19.971	2.036	0.535
934.499	551.204	80.009	19.992	103.795	19.970	2.106	0.467
934.999	551.480	80.007	19.995	103.792	19.969	2.179	0.478
935.499	551.719	80.008	19.993	103.793	19.970	2.139	0.513
935.999	552.004	80.008	19.993	103.794	19.973	1.889	0.520
936.500	552.239	80.009	19.995	103.791	19.974	1.843	0.522
937.000	552.510	80.010	19.994	103.789	19.973	1.942	0.513
937.500	552.752	80.009	19.994	103.788	19.971	2.051	0.509
937.999	553.031	80.008	19.993	103.791	19.971	2.023	0.517
938.499	553.307	80.008	19.993	103.790	19.972	1.976	0.538
938.999	553.565	80.008	19.995	103.790	19.973	1.928	0.544
939.499	553.829	80.010	19.992	103.791	19.971	2.016	0.528
940.000	554.098	80.008	19.993	103.790	19.972	1.985	0.527
940.500	554.342	80.009	19.994	103.786	19.975	1.794	0.523
940.999	554.622	80.008	19.994	103.786	19.974	1.873	0.519
941.500	554.896	80.007	19.993	103.787	19.974	1.864	0.539
942.000	555.117	80.007	19.994	103.789	19.971	2.049	0.525
942.499	555.357	80.007	19.994	103.788	19.974	1.814	0.478
942.999	555.624	80.008	19.994	103.788	19.971	2.067	0.484
943.499	555.884	80.008	19.993	103.788	19.973	1.943	0.517
943.999	556.150	80.008	19.995	103.786	19.973	1.895	0.526
944.499	556.387	80.007	19.995	103.785	19.973	1.886	0.514
944.999	556.629	80.007	19.994	103.786	19.973	1.923	0.491
945.499	556.886	80.008	19.994	103.787	19.974	1.857	0.489
945.999	557.140	80.008	19.995	103.787	19.971	2.025	0.504
946.499	557.381	80.008	19.994	103.787	19.974	1.814	0.503
946.999	557.653	80.007	19.994	103.786	19.973	1.878	0.504
947.499	557.918	80.009	19.993	103.789	19.973	1.880	0.525
947.999	558.173	80.007	19.994	103.791	19.974	1.864	0.528
948.499	558.410	80.007	19.994	103.793	19.971	2.014	0.506
948.999	558.689	80.008	19.994	103.794	19.971	2.014	0.504
949.499	558.963	80.008	19.995	103.794	19.973	1.900	0.535
950.000	559.213	80.008	19.993	103.791	19.974	1.842	0.539
950.500	559.455	80.008	19.994	103.789	19.972	1.946	0.508
950.999	559.698	80.006	19.994	103.789	19.972	1.948	0.488
951.499	559.970	80.008	19.994	103.788	19.973	1.897	0.500
952.000	560.235	80.007	19.995	103.788	19.975	1.750	0.526
952.500	560.504	80.008	19.993	103.788	19.973	1.887	0.536
952.999	560.732	80.007	19.994	103.787	19.975	1.774	0.515
953.499	561.006	80.008	19.993	103.788	19.972	1.988	0.499
953.999	561.247	80.007	19.995	103.793	19.975	1.805	0.509
954.499	561.532	80.007	19.993	103.800	19.976	1.728	0.520
954.999	561.778	80.007	19.993	103.805	19.971	2.014	0.529
955.499	562.031	80.008	19.993	103.808	19.971	2.076	0.516
955.999	562.309	80.007	19.994	103.808	19.975	1.803	0.515
956.499	562.537	80.008	19.994	103.810	19.971	2.021	0.518
957.000	562.811	80.007	19.993	103.806	19.974	1.825	0.504
957.500	563.056	80.006	19.993	103.801	19.974	1.809	0.510
958.000	563.302	80.007	19.993	103.801	19.976	1.711	0.505
958.500	563.592	80.009	19.994	103.799	19.974	1.820	0.514
958.999	563.832	80.008	19.993	103.794	19.976	1.697	0.533
959.499	564.044	80.006	19.993	103.790	19.977	1.667	0.491
960.000	564.336	80.009	19.994	103.791	19.969	2.154	0.478
960.500	564.602	80.008	19.993	103.790	19.974	1.864	0.531
961.000	564.817	80.008	19.994	103.789	19.974	1.842	0.519
961.500	565.085	80.008	19.993	103.788	19.972	1.946	0.483
962.000	565.335	80.007	19.993	103.790	19.972	1.957	0.501
962.500	565.581	80.008	19.995	103.790	19.974	1.862	0.507
962.999	565.834	80.009	19.993	103.789	19.971	2.043	0.497
963.499	566.061	80.010	19.993	103.790	19.973	1.906	0.490
963.999	566.361	80.009	19.994	103.790	19.972	1.961	0.503
964.499	566.632	80.009	19.993	103.790	19.972	1.961	0.549
964.999	566.874	80.010	19.994	103.789	19.974	1.866	0.542
965.499	567.099	80.008	19.993	103.789	19.974	1.832	0.490
966.000	567.374	80.010	19.993	103.790	19.972	1.972	0.484
966.500	567.649	80.009	19.995	103.791	19.974	1.871	0.525
966.999	567.920	80.009	19.993	103.795	19.973	1.880	0.548
967.499	568.154	80.008	19.994	103.797	19.972	2.001	0.526
967.999	568.437	80.008	19.994	103.799	19.970	2.122	0.511
968.499	568.689	80.008	19.995	103.798	19.970	2.086	0.526
968.999	568.932	80.009	19.995	103.796	19.972	1.961	0.515
969.499	569.171	80.009	19.993	103.795	19.972	1.946	0.488
969.999	569.441	80.008	19.994	103.797	19.972	1.999	0.495
970.499	569.707	80.009	19.993	103.795	19.974	1.862	0.522
970.999	569.941	80.007	19.995	103.796	19.971	2.018	0.518
971.499	570.198	80.008	19.995	103.797	19.973	1.906	0.496
971.999	570.440	80.008	19.993	103.791	19.971	2.056	0.495
972.499	570.690	80.008	19.994	103.787	19.971	2.073	0.495
972.999	570.997	80.007	19.995	103.787	19.972	1.961	0.524
973.499	571.220	80.009	19.994	103.786	19.971	2.051	0.543
973.999	571.516	80.008	19.994	103.790	19.971	2.017	0.524
974.499	571.740	80.007	19.993	103.793	19.969	2.150	0.519
974.999	571.990	80.006	19.995	103.794	19.973	1.926	0.497
975.499	572.257	80.007	19.994	103.793	19.972	1.970	0.496
975.999	572.548	80.008	19.994	103.794	19.974	1.818	0.537
976.499	572.753	80.008	19.993	103.787	19.972	1.981	0.527
976.999	573.053	80.009	19.994	103.784	19.973	1.930	0.501
977.499	573.291	80.008	19.994	103.784	19.973	1.941	0.522
978.000	573.570	80.007	19.994	103.784	19.974	1.865	0.528
978.500	573.806	80.008	19.996	103.785	19.973	1.920	0.516
978.999	574.132	80.007	19.993	103.790	19.973	1.928	0.538
979.499	574.359	80.009	19.993	103.792	19.972	1.954	0.557
979.999	574.622	80.009	19.992	103.794	19.973	1.919	0.522
980.499	574.883	80.008	19.994	103.794	19.973	1.909	0.507
980.999	575.134	80.008	19.995	103.793	19.969	2.196	0.518
981.499	575.384	80.010	19.994	103.789	19.971	2.045	0.507
981.999	575.642	80.009	19.993	103.788	19.972	1.959	0.505
982.499	575.915	80.010	19.993	103.784	19.974	1.821	0.520
982.999	576.148	80.008	19.993	103.784	19.970	2.120	0.519
983.499	576.399	80.010	19.993	103.782	19.971	2.043	0.495
983.999	576.675	80.008	19.993	103.781	19.975	1.794	0.505
984.499	576.957	80.010	19.993	103.781	19.971	2.069	0.542
984.999	577.198	80.009	19.993	103.781	19.975	1.763	0.540
985.499	577.489	80.009	19.991	103.781	19.973	1.900	0.528
985.999	577.687	80.008	19.993	103.782	19.973	1.909	0.511
986.499	577.946	80.010	19.994	103.787	19.972	1.983	0.472
987.000	578.210	80.009	19.994	103.788	19.970	2.084	0.489
987.500	578.500	80.010	19.993	103.788	19.974	1.849	0.538
988.000	578.771	80.010	19.994	103.789	19.971	2.043	0.558
988.500	579.014	80.011	19.994	103.788	19.974	1.825	0.538
989.000	579.279	80.012	19.992	103.786	19.974	1.860	0.511
989.500	579.499	80.010	19.993	103.788	19.974	1.836	0.497
989.999	579.789	80.010	19.993	103.790	19.971	2.062	0.498
990.499	580.034	80.011	19.993	103.792	19.974	1.829	0.522
990.999	580.278	80.009	19.995	103.792	19.973	1.907	0.512
991.499	580.549	80.011	19.993	103.791	19.971	2.047	0.502
992.000	580.808	80.010	19.993	103.789	19.972	1.948	0.523
992.500	581.082	80.010	19.994	103.790	19.974	1.845	0.531
993.000	581.339	80.010	19.993	103.787	19.972	1.986	0.532
993.500	581.558	80.009	19.994	103.790	19.974	1.823	0.504
994.000	581.837	80.009	19.992	103.788	19.972	1.961	0.488
994.500	582.083	80.008	19.993	103.791	19.973	1.924	0.511
995.000	582.343	80.009	19.994	103.789	19.969	2.161	0.515
995.500	582.622	80.010	19.993	103.793	19.974	1.847	0.523
996.000	582.866	80.009	19.993	103.793	19.973	1.900	0.531
996.500	583.133	80.010	19.993	103.795	19.970	2.130	0.517
996.999	583.381	80.008	19.993	103.792	19.972	2.012	0.513
997.499	583.655	80.008	19.993	103.792	19.971	2.078	0.519
997.999	583.901	80.008	19.993	103.788	19.972	1.998	0.521
998.499	584.127	80.008	19.994	103.788	19.972	1.983	0.496
999.000	584.366	80.007	19.994	103.789	19.970	2.117	0.468
999.500	584.650	80.009	19.993	103.792	19.972	2.007	0.493
1000.000	584.902	80.008	19.993	103.791	19.971	2.034	0.529
1000.500	585.168	80.007	19.994	103.792	19.970	2.109	0.527
1000.999	585.425	80.008	19.994	103.790	19.968	2.218	0.521
1001.499	585.704	80.007	19.995	103.786	19.970	2.122	0.530
1001.999	585.953	80.007	19.995	103.783	19.971	2.074	0.532
1002.500	586.220	80.007	19.993	103.784	19.971	2.043	0.522
1003.000	586.483	80.008	19.994	103.783	19.972	1.985	0.523
1003.499	586.735	80.008	19.992	103.786	19.972	2.010	0.522
1003.999	587.010	80.008	19.993	103.786	19.970	2.095	0.521
1004.499	587.252	80.008	19.994	103.787	19.972	1.961	0.522
1004.999	587.505	80.008	19.994	103.788	19.969	2.170	0.506
1005.499	587.769	80.008	19.993	103.788	19.972	2.007	0.506
1005.999	588.007	80.009	19.993	103.787	19.971	2.041	0.509
1006.499	588.271	80.007	19.993	103.788	19.969	2.174	0.502
1006.999	588.549	80.007	19.995	103.788	19.972	1.955	0.522
1007.499	588.769	80.008	19.993	103.790	19.971	2.036	0.520
1007.999	589.035	80.007	19.993	103.793	19.971	2.076	0.492
1008.499	589.286	80.009	19.993	103.794	19.972	1.990	0.501
1008.999	589.540	80.007	19.993	103.797	19.966	2.355	0.510
1009.499	589.866	80.008	19.994	103.798	19.969	2.185	0.542
1009.999	590.067	80.007	19.993	103.796	19.972	2.007	0.554
1010.499	590.345	80.009	19.993	103.794	19.969	2.155	0.503
1010.999	590.621	80.008	19.994	103.791	19.968	2.238	0.516
1011.499	590.848	80.008	19.993	103.787	19.968	2.275	0.529
1011.999	591.103	80.008	19.994	103.785	19.970	2.100	0.493
1012.499	591.343	80.009	19.993	103.784	19.968	2.282	0.489
1012.999	591.616	80.009	19.993	103.784	19.970	2.093	0.504
1013.499	591.861	80.008	19.993	103.784	19.969	2.161	0.516
1013.999	592.110	80.008	19.994	103.785	19.970	2.111	0.507
1014.499	592.377	80.008	19.994	103.785	19.967	2.317	0.505
1014.999	592.644	80.008	19.992	103.785	19.968	2.249	0.525
1015.499	592.891	80.008	19.993	103.785	19.969	2.186	0.524
1015.999	593.160	80.009	19.992	103.785	19.967	2.351	0.515
1016.499	593.397	80.008	19.993	103.786	19.969	2.181	0.511
1016.999	593.688	80.009	19.993	103.787	19.968	2.253	0.517
1017.499	593.916	80.008	19.994	103.787	19.965	2.458	0.523
1018.000	594.194	80.009	19.993	103.787	19.967	2.313	0.512
1018.500	594.444	80.008	19.993	103.787	19.969	2.161	0.517
1019.000	594.725	80.009	19.992	103.787	19.971	2.018	0.530
1019.499	594.993	80.009	19.992	103.790	19.969	2.214	0.540
1019.999	595.217	80.008	19.993	103.792	19.968	2.262	0.520
1020.499	595.489	80.008	19.992	103.796	19.968	2.245	0.494
1020.999	595.775	80.008	19.993	103.797	19.968	2.267	0.527
1021.499	596.020	80.008	19.994	103.796	19.967	2.296	0.544
1021.999	596.248	80.007	19.994	103.793	19.967	2.313	0.502
1022.499	596.546	80.008	19.992	103.793	19.969	2.166	0.500
1022.999	596.766	80.008	19.993	103.790	19.967	2.353	0.522
1023.499	597.028	80.008	19.993	103.790	19.966	2.379	0.500
1023.999	597.293	80.008	19.993	103.792	19.967	2.320	0.505
1024.499	597.514	80.009	19.993	103.791	19.971	2.030	0.507
1024.999	597.790	80.007	19.994	103.790	19.968	2.238	0.491
1025.499	598.035	80.008	19.994	103.789	19.966	2.359	0.509
1025.999	598.263	80.007	19.994	103.787	19.965	2.440	0.497
1026.500	598.549	80.008	19.993	103.786	19.968	2.269	0.493
1027.000	598.815	80.008	19.993	103.789	19.966	2.361	0.533
1027.499	599.018	80.007	19.993	103.791	19.970	2.135	0.510
1027.999	599.270	80.007	19.993	103.792	19.970	2.100	0.462
1028.499	599.551	80.008	19.994	103.792	19.969	2.199	0.495
1028.999	599.759	80.007	19.992	103.795	19.967	2.307	0.511
1029.499	600.033	80.007	19.993	103.799	19.966	2.355	0.485
1029.999	600.297	80.007	19.993	103.802	19.967	2.335	0.510
1030.499	600.534	80.006	19.993	103.804	19.971	2.080	0.520
1030.999	600.791	80.007	19.995	103.804	19.970	2.131	0.498
1031.499	601.043	80.008	19.993	103.801	19.968	2.263	0.502
1031.999	601.316	80.008	19.995	103.793	19.971	2.043	0.517
1032.499	601.564	80.008	19.995	103.788	19.973	1.940	0.523
1032.999	601.825	80.007	19.994	103.786	19.971	2.043	0.515
1033.499	602.086	80.006	19.994	103.786	19.971	2.061	0.515
1033.999	602.306	80.008	19.994	103.786	19.970	2.133	0.501
1034.499	602.557	80.006	19.994	103.785	19.971	2.069	0.476
1034.999	602.801	80.008	19.994	103.784	19.972	1.981	0.483
1035.499	603.059	80.007	19.994	103.783	19.968	2.274	0.498
1035.999	603.388	80.008	19.994	103.785	19.971	2.014	0.544
1036.499	603.566	80.007	19.995	103.789	19.969	2.192	0.547
1036.999	603.861	80.007	19.994	103.794	19.969	2.198	0.490
1037.499	604.084	80.008	19.994	103.794	19.972	2.007	0.496
1037.999	604.348	80.008	19.994	103.794	19.968	2.276	0.503
1038.499	604.574	80.009	19.993	103.791	19.970	2.137	0.489
1038.999	604.868	80.007	19.994	103.786	19.971	2.067	0.505
1039.499	605.112	80.008	19.995	103.784	19.971	2.025	0.529
1039.999	605.321	80.009	19.994	103.786	19.968	2.241	0.495
1040.499	605.621	80.008	19.995	103.786	19.970	2.085	0.481
1040.999	605.850	80.009	19.993	103.786	19.972	2.003	0.519
1041.499	606.129	80.008	19.994	103.785	19.973	1.935	0.519
1041.999	606.360	80.010	19.995	103.783	19.971	2.063	0.509
1042.499	606.584	80.010	19.994	103.781	19.971	2.025	0.483
1042.999	606.871	80.009	19.994	103.781	19.972	2.005	0.483
1043.499	607.097	80.010	19.995	103.781	19.971	2.054	0.512
1043.999	607.351	80.010	19.994	103.779	19.972	1.990	0.497
1044.499	607.602	80.010	19.994	103.778	19.973	1.926	0.492
1044.999	607.870	80.011	19.994	103.777	19.971	2.034	0.512
1045.499	608.131	80.009	19.992	103.777	19.973	1.904	0.524
1045.999	608.398	80.009	19.995	103.778	19.973	1.941	0.528
1046.499	608.654	80.010	19.994	103.781	19.972	1.983	0.525
1046.999	608.884	80.009	19.994	103.788	19.971	2.047	0.504
1047.499	609.167	80.011	19.994	103.793	19.972	1.966	0.500
1047.999	609.395	80.010	19.993	103.795	19.972	1.957	0.512
1048.499	609.639	80.009	19.993	103.799	19.973	1.917	0.492
1048.999	609.922	80.010	19.994	103.797	19.971	2.078	0.500
1049.499	610.145	80.009	19.994	103.796	19.970	2.129	0.516
1049.999	610.413	80.008	19.993	103.792	19.972	1.948	0.498
1050.499	610.648	80.009	19.993	103.791	19.968	2.258	0.497
1050.999	610.903	80.009	19.994	103.787	19.970	2.087	0.496
1051.499	611.139	80.009	19.992	103.787	19.972	1.983	0.491
1051.999	611.378	80.009	19.994	103.783	19.972	2.001	0.483
1052.499	611.697	80.009	19.994	103.782	19.970	2.118	0.517
1052.999	611.926	80.011	19.994	103.782	19.968	2.238	0.552
1053.499	612.162	80.008	19.993	103.782	19.969	2.172	0.506
1053.999	612.418	80.008	19.995	103.785	19.969	2.179	0.479
1054.499	612.687	80.009	19.993	103.786	19.970	2.129	0.508
1054.999	612.969	80.010	19.994	103.785	19.970	2.098	0.538
1055.499	613.224	80.010	19.992	103.785	19.971	2.014	0.544
1056.000	613.467	80.009	19.993	103.785	19.971	2.040	0.518
1056.500	613.723	80.009	19.994	103.782	19.972	1.946	0.498
1056.999	613.907	80.009	19.994	103.786	19.968	2.252	0.470
1057.499	614.247	80.008	19.994	103.789	19.971	2.043	0.482
1057.999	614.483	80.010	19.995	103.789	19.970	2.082	0.550
1058.499	614.735	80.010	19.994	103.788	19.970	2.093	0.532
1058.999	614.999	80.008	19.995	103.787	19.970	2.098	0.502
1059.499	615.245	80.009	19.994	103.788	19.972	2.001	0.513
1059.999	615.487	80.009	19.995	103.784	19.969	2.151	0.500
1060.499	615.766	80.009	19.994	103.784	19.970	2.106	0.505
1060.999	615.985	80.008	19.995	103.784	19.973	1.904	0.509
1061.499	616.286	80.009	19.994	103.784	19.973	1.928	0.509
1061.999	616.528	80.009	19.993	103.780	19.970	2.128	0.531
1062.499	616.798	80.009	19.994	103.780	19.973	1.891	0.528
1062.999	617.030	80.008	19.994	103.782	19.971	2.056	0.508
1063.499	617.267	80.010	19.995	103.782	19.971	2.041	0.485
1063.999	617.521	80.010	19.993	103.782	19.968	2.265	0.480
1064.499	617.801	80.010	19.995	103.784	19.972	1.975	0.512
1064.999	618.047	80.009	19.995	103.785	19.972	1.975	0.530
1065.499	618.274	80.009	19.994	103.784	19.971	2.069	0.500
1065.999	618.579	80.009	19.994	103.784	19.967	2.296	0.503
1066.499	618.822	80.010	19.995	103.785	19.970	2.082	0.540
1066.999	619.080	80.010	19.994	103.784	19.970	2.095	0.524
1067.499	619.309	80.009	19.994	103.785	19.969	2.170	0.494
1067.999	619.564	80.010	19.993	103.785	19.968	2.245	0.485
1068.499	619.875	80.009	19.995	103.783	19.972	2.007	0.525
1068.999	620.076	80.010	19.993	103.784	19.971	2.023	0.539
1069.499	620.394	80.010	19.993	103.784	19.971	2.036	0.516
1069.999	620.595	80.011	19.994	103.782	19.971	2.034	0.519
1070.499	620.852	80.010	19.993	103.782	19.971	2.076	0.489
1070.999	621.100	80.009	19.994	103.784	19.977	1.653	0.481
1071.500	621.407	80.010	19.992	103.784	19.971	2.054	0.530
1072.000	621.570	80.009	19.993	103.786	19.974	1.858	0.513
1072.499	621.891	80.011	19.993	103.787	19.971	2.014	0.477
1072.999	622.100	80.009	19.993	103.788	19.973	1.900	0.507
1073.499	622.392	80.009	19.993	103.787	19.978	1.539	0.516
1073.999	622.615	80.011	19.993	103.787	19.964	2.491	0.508
1074.499	622.884	80.010	19.992	103.785	19.974	1.810	0.503
1074.999	623.221	80.009	19.993	103.786	19.988	0.857	0.549
1075.499	623.342	80.010	19.992	103.785	19.975	1.792	0.532
1075.999	623.651	80.009	19.993	103.785	19.972	1.966	0.444
1076.499	623.935	80.008	19.994	103.785	19.972	1.990	0.511
1076.999	624.192	80.008	19.993	103.785	19.970	2.102	0.567
1077.499	624.385	80.007	19.993	103.786	19.977	1.605	0.496
1077.999	624.672	80.007	19.992	103.786	19.973	1.902	0.465
1078.499	625.025	80.006	19.994	103.786	19.969	2.185	0.560
1078.999	625.197	80.009	19.992	103.787	19.965	2.450	0.582
1079.499	625.494	80.008	19.994	103.788	19.971	2.051	0.497
1079.999	625.675	80.007	19.993	103.787	19.970	2.087	0.474
1080.499	625.930	80.008	19.993	103.787	19.969	2.164	0.457
1080.999	626.273	80.007	19.993	103.789	19.969	2.159	0.517
1081.499	626.422	80.007	19.993	103.788	19.969	2.197	0.545
1081.999	626.796	80.008	19.992	103.788	19.970	2.124	0.507
1082.499	627.008	80.006	19.992	103.788	19.969	2.183	0.555
1082.999	627.329	80.009	19.992	103.788	19.972	2.010	0.560
1083.499	627.530	80.009	19.992	103.787	19.972	1.999	0.528
1083.999	627.660	80.008	19.993	103.786	19.971	2.080	0.427
1084.499	628.110	80.008	19.994	103.786	19.969	2.159	0.456
1084.999	628.431	80.007	19.993	103.785	19.971	2.049	0.676
1085.499	628.533	80.007	19.992	103.785	19.970	2.128	0.597
1085.999	628.771	80.007	19.993	103.786	19.971	2.073	0.382
1086.499	628.990	80.007	19.992	103.786	19.968	2.278	0.399
1086.999	629.400	80.007	19.992	103.786	19.968	2.260	0.543
1087.500	629.888	80.007	19.993	103.787	19.971	2.056	0.763
1088.000	629.331	80.007	19.993	103.787	19.969	2.163	0.414
1088.499	630.551	80.007	19.993	103.787	19.970	2.100	0.297
1088.999	631.018	80.008	19.992	103.787	19.970	2.104	1.175
1089.499	630.759	80.007	19.992	103.786	19.970	2.115	0.947
1089.999	630.940	80.006	19.993	103.785	19.970	2.106	0.065
1090.499	631.183	80.006	19.994	103.785	19.969	2.151	0.173
1090.999	631.428	80.008	19.993	103.785	19.970	2.091	0.456
1091.499	631.931	80.007	19.993	103.785	19.970	2.148	0.618
1091.999	631.963	80.007	19.992	103.787	19.967	2.289	0.642
1092.499	632.221	80.007	19.993	103.787	19.970	2.140	0.412
1092.999	632.289	80.007	19.992	103.787	19.969	2.212	0.307
1093.499	632.714	80.009	19.993	103.787	19.967	2.324	0.410
1093.999	632.974	80.007	19.994	103.787	19.968	2.228	0.589
1094.499	633.198	80.006	19.993	103.787	19.967	2.300	0.584
1094.999	633.476	80.007	19.994	103.787	19.965	2.463	0.493
1095.499	633.682	80.008	19.993	103.787	19.966	2.359	0.494
1095.999	633.969	80.010	19.992	103.787	19.969	2.155	0.488
1096.499	634.215	80.009	19.992	103.787	19.967	2.291	0.513
1097.000	634.541	80.008	19.993	103.787	19.967	2.330	0.553
1097.500	634.733	80.009	19.994	103.786	19.968	2.247	0.545
1097.999	634.992	80.009	19.993	103.787	19.966	2.368	0.484
1098.499	635.260	80.009	19.992	103.789	19.967	2.295	0.489
1098.999	635.531	80.008	19.994	103.791	19.968	2.251	0.534
1099.499	635.722	80.008	19.994	103.791	19.970	2.091	0.501
1099.999	636.067	80.009	19.994	103.791	19.968	2.227	0.498
1100.499	636.273	80.008	19.992	103.789	19.970	2.122	0.543
1100.999	636.532	80.008	19.993	103.786	19.971	2.060	0.508
1101.499	636.809	80.008	19.994	103.783	19.969	2.179	0.501
1101.999	637.054	80.007	19.994	103.783	19.970	2.095	0.529
1102.499	637.302	80.009	19.993	103.782	19.970	2.096	0.508
1102.999	637.567	80.009	19.994	103.782	19.967	2.324	0.503
1103.499	637.792	80.008	19.994	103.782	19.969	2.172	0.501
1103.999	638.070	80.009	19.993	103.782	19.969	2.175	0.496
1104.499	638.296	80.009	19.993	103.782	19.971	2.076	0.503
1104.999	638.537	80.009	19.994	103.783	19.968	2.252	0.486
1105.499	638.869	80.007	19.991	103.783	19.967	2.307	0.520
1105.999	639.050	80.007	19.994	103.783	19.968	2.228	0.543
1106.499	639.370	80.008	19.995	103.783	19.971	2.030	0.507
1106.999	639.574	80.008	19.993	103.788	19.971	2.073	0.513
1107.499	639.883	80.007	19.993	103.790	19.969	2.172	0.519
1107.999	640.046	80.009	19.993	103.791	19.970	2.113	0.492
1108.499	640.343	80.008	19.993	103.791	19.970	2.148	0.466
1108.999	640.589	80.007	19.993	103.791	19.971	2.023	0.502
1109.499	640.804	80.008	19.993	103.787	19.969	2.162	0.502
1110.000	641.090	80.007	19.993	103.786	19.971	2.062	0.481
1110.500	641.323	80.009	19.993	103.786	19.971	2.045	0.510
1110.999	641.588	80.008	19.993	103.785	19.968	2.225	0.508
1111.499	641.803	80.008	19.994	103.785	19.971	2.065	0.489
1111.999	642.098	80.009	19.994	103.785	19.968	2.263	0.495
1112.499	642.356	80.008	19.994	103.784	19.971	2.025	0.532
1112.999	642.626	80.007	19.993	103.784	19.969	2.197	0.541
1113.499	642.879	80.007	19.994	103.785	19.971	2.018	0.526
1113.999	643.127	80.009	19.994	103.786	19.969	2.150	0.512
1114.499	643.339	80.008	19.993	103.786	19.968	2.243	0.480
1114.999	643.611	80.008	19.993	103.786	19.970	2.111	0.472
1115.499	643.878	80.008	19.994	103.786	19.970	2.098	0.511
1115.999	644.089	80.010	19.993	103.784	19.969	2.199	0.508
1116.499	644.349	80.009	19.994	103.783	19.969	2.197	0.474
1116.999	644.654	80.008	19.994	103.783	19.966	2.410	0.518
1117.499	644.836	80.009	19.994	103.783	19.969	2.205	0.526
1117.999	645.097	80.008	19.995	103.783	19.970	2.107	0.465
1118.500	645.373	80.009	19.994	103.784	19.969	2.164	0.490
1119.000	645.601	80.009	19.993	103.784	19.969	2.150	0.521
1119.499	645.881	80.010	19.992	103.784	19.973	1.920	0.506
1119.999	646.148	80.009	19.993	103.784	19.979	1.500	0.528
1120.499	646.383	80.009	19.993	103.785	19.970	2.140	0.525
1120.999	646.624	80.009	19.994	103.785	19.967	2.304	0.489
1121.499	646.845	80.010	19.993	103.784	19.968	2.223	0.469
1121.999	647.158	80.010	19.994	103.785	19.971	2.062	0.498
1122.499	647.420	80.011	19.993	103.784	19.970	2.109	0.555
1122.999	647.666	80.009	19.994	103.784	19.965	2.445	0.541
1123.499	647.891	80.009	19.994	103.787	19.971	2.051	0.489
1123.999	648.103	80.009	19.993	103.787	19.971	2.032	0.454
1124.499	648.394	80.010	19.994	103.787	19.970	2.137	0.470
1125.000	648.670	80.011	19.993	103.787	19.972	1.999	0.535
1125.500	648.910	80.010	19.994	103.785	19.967	2.322	0.541
1125.999	649.166	80.009	19.994	103.783	19.972	2.001	0.506
1126.499	649.393	80.010	19.994	103.782	19.966	2.386	0.490
1126.999	649.676	80.009	19.994	103.782	19.971	2.016	0.497
1127.499	649.895	80.011	19.993	103.782	19.967	2.339	0.506
1127.999	650.155	80.010	19.994	103.783	19.969	2.150	0.490
1128.499	650.412	80.011	19.993	103.782	19.969	2.210	0.498
1128.999	650.698	80.011	19.993	103.782	19.967	2.342	0.530
1129.499	650.942	80.009	19.994	103.782	19.967	2.351	0.537
1129.999	651.182	80.009	19.993	103.783	19.968	2.269	0.507
1130.499	651.347	80.009	19.995	103.782	19.967	2.291	0.444
1130.999	651.613	80.010	19.994	103.782	19.968	2.240	0.418
1131.499	651.860	80.009	19.993	103.782	19.967	2.307	0.473
1131.999	652.202	80.009	19.994	103.782	19.963	2.584	0.551
1132.499	652.373	80.007	19.994	103.782	19.965	2.436	0.550
1132.999	652.689	80.010	19.993	103.784	19.967	2.322	0.500
1133.499	653.546	80.010	19.994	103.784	19.966	2.384	0.830
1133.999	653.927	80.011	19.994	103.784	19.967	2.333	1.206
1134.499	653.372	80.009	19.993	103.783	19.970	2.089	0.532
1135.000	653.738	80.010	19.993	103.783	19.967	2.295	-0.182
1135.500	653.885	80.009	19.993	103.783	19.967	2.327	0.162
1136.000	654.233	80.009	19.993	103.782	19.970	2.093	0.505
1136.501	654.431	80.009	19.992	103.783	19.969	2.197	0.521
1137.001	654.690	80.009	19.993	103.784	19.968	2.269	0.501
1137.500	654.955	80.009	19.993	103.785	19.968	2.225	0.490
1137.999	655.230	80.008	19.994	103.784	19.966	2.392	0.532
1138.499	655.608	80.009	19.994	103.784	19.974	1.853	0.597
1138.999	655.340	80.006	19.994	103.782	19.972	1.986	0.381
1139.499	655.989	80.009	19.994	103.782	19.969	2.153	0.245
1139.999	656.442	80.009	19.993	103.782	19.969	2.172	0.741
1140.499	656.424	80.010	19.992	103.783	19.970	2.120	0.769
1140.999	656.796	80.011	19.993	103.783	19.969	2.208	0.395
1141.499	656.985	80.010	19.993	103.785	19.969	2.153	0.457
1141.999	657.269	80.009	19.992	103.785	19.969	2.170	0.517
1142.499	657.495	80.009	19.993	103.785	19.968	2.284	0.492
1142.999	657.735	80.010	19.993	103.785	19.965	2.423	0.488
1143.499	658.007	80.010	19.993	103.781	19.968	2.258	0.489
1143.999	658.308	80.009	19.993	103.781	19.971	2.073	0.542
1144.499	658.505	80.009	19.994	103.781	19.969	2.212	0.536
1144.999	658.767	80.009	19.993	103.780	19.966	2.392	0.479
1145.499	659.015	80.009	19.993	103.781	19.965	2.430	0.485
1146.000	659.303	80.011	19.993	103.784	19.967	2.324	0.523
1146.500	659.534	80.010	19.993	103.780	19.968	2.234	0.527
1147.000	659.808	80.009	19.993	103.781	19.965	2.480	0.512
1147.500	660.075	80.011	19.993	103.784	19.968	2.229	0.522
1147.999	660.315	80.010	19.993	103.784	19.969	2.214	0.524
1148.499	660.523	80.010	19.994	103.784	19.967	2.348	0.478
1148.999	660.840	80.010	19.994	103.788	19.969	2.175	0.487
1149.499	661.023	80.011	19.995	103.787	19.966	2.375	0.513
1149.999	661.288	80.009	19.994	103.784	19.968	2.225	0.474
1150.499	661.558	80.009	19.995	103.784	19.965	2.472	0.491
1150.999	661.790	80.009	19.992	103.784	19.968	2.243	0.518
1151.499	662.045	80.011	19.993	103.785	19.969	2.184	0.495
1152.000	662.330	80.008	19.994	103.785	19.966	2.359	0.513
1152.500	662.584	80.009	19.994	103.786	19.965	2.472	0.539
1153.000	662.828	80.008	19.995	103.786	19.968	2.282	0.518
1153.500	663.074	80.008	19.993	103.785	19.968	2.282	0.494
1154.001	663.307	80.009	19.995	103.784	19.968	2.217	0.484
1154.501	663.571	80.010	19.994	103.784	19.967	2.342	0.488
1155.000	663.797	80.009	19.994	103.784	19.969	2.216	0.494
1155.500	664.025	80.008	19.995	103.783	19.968	2.238	0.472
1156.000	664.293	80.007	19.994	103.783	19.971	2.030	0.475
1156.499	664.501	80.008	19.994	103.783	19.967	2.348	0.486
1157.000	664.764	80.007	19.995	103.784	19.970	2.082	0.474
1157.500	665.007	80.007	19.995	103.785	19.966	2.406	0.489
1157.999	665.267	80.008	19.995	103.786	19.968	2.271	0.504
1158.499	665.535	80.008	19.994	103.786	19.968	2.247	0.516
1158.999	665.747	80.008	19.995	103.786	19.967	2.335	0.504
1159.499	665.999	80.008	19.995	103.785	19.968	2.282	0.471
1159.999	666.265	80.008	19.994	103.783	19.970	2.146	0.491
1160.499	666.502	80.008	19.995	103.781	19.965	2.489	0.511
1160.999	666.725	80.008	19.994	103.775	19.968	2.249	0.482
1161.499	666.987	80.008	19.994	103.774	19.968	2.274	0.472
1162.000	667.212	80.007	19.994	103.773	19.968	2.254	0.486
1162.500	667.454	80.008	19.995	103.774	19.967	2.353	0.477
1162.999	667.696	80.008	19.995	103.775	19.964	2.493	0.475
1163.499	667.969	80.009	19.995	103.780	19.968	2.265	0.500
1163.999	668.186	80.006	19.994	103.781	19.965	2.434	0.503
1164.499	668.429	80.008	19.994	103.781	19.965	2.480	0.475
1164.999	668.699	80.008	19.993	103.781	19.968	2.236	0.486
1165.499	668.920	80.007	19.994	103.781	19.966	2.414	0.502
1165.999	669.187	80.008	19.995	103.781	19.969	2.194	0.490
1166.499	669.468	80.008	19.994	103.781	19.965	2.474	0.518
1167.000	669.694	80.009	19.994	103.781	19.967	2.331	0.527
1167.500	669.972	80.007	19.993	103.782	19.967	2.327	0.505
1167.999	670.165	80.007	19.993	103.782	19.964	2.502	0.487
1168.499	670.383	80.007	19.993	103.782	19.966	2.364	0.441
1168.999	670.659	80.007	19.994	103.782	19.966	2.377	0.453
1169.499	670.930	80.008	19.993	103.782	19.967	2.338	0.520
1169.999	671.204	80.007	19.994	103.781	19.967	2.351	0.545
1170.499	671.431	80.008	19.993	103.782	19.964	2.511	0.523
1171.000	671.667	80.008	19.993	103.782	19.965	2.482	0.482
1171.500	671.897	80.008	19.994	103.783	19.967	2.302	0.465
1171.999	672.126	80.008	19.993	103.783	19.965	2.445	0.463
1172.500	672.390	80.009	19.993	103.783	19.964	2.524	0.476
1173.000	672.635	80.008	19.994	103.783	19.965	2.481	0.501
1173.499	672.917	80.008	19.995	103.783	19.965	2.447	0.518
1173.999	673.105	80.008	19.991	103.783	19.966	2.382	0.499
1174.499	673.385	80.008	19.993	103.782	19.964	2.527	0.469
1174.999	673.623	80.009	19.994	103.780	19.965	2.480	0.493
1175.499	673.884	80.006	19.994	103.780	19.967	2.313	0.509
1175.999	674.129	80.008	19.995	103.780	19.968	2.282	0.502
1176.499	674.363	80.007	19.995	103.780	19.967	2.344	0.492
1176.999	674.606	80.008	19.994	103.782	19.964	2.549	0.478
1177.499	674.881	80.008	19.993	103.783	19.965	2.485	0.498
1177.999	675.120	80.007	19.994	103.783	19.961	2.753	0.516
1178.499	675.401	80.009	19.994	103.782	19.963	2.570	0.517
1178.999	675.639	80.008	19.993	103.781	19.966	2.401	0.520
1179.499	675.887	80.007	19.994	103.781	19.963	2.623	0.503
1179.999	676.147	80.010	19.992	103.781	19.964	2.559	0.497
1180.499	676.349	80.008	19.994	103.781	19.964	2.507	0.485
1180.999	676.643	80.008	19.994	103.781	19.965	2.449	0.479
1181.499	676.937	80.009	19.993	103.781	19.965	2.430	0.542
1181.999	677.107	80.008	19.993	103.780	19.965	2.434	0.526
1182.499	677.392	80.008	19.994	103.781	19.964	2.494	0.459
1182.999	677.613	80.010	19.993	103.781	19.964	2.493	0.480
1183.499	677.885	80.007	19.993	103.781	19.966	2.419	0.499
1183.999	678.151	80.009	19.994	103.779	19.965	2.441	0.516
1184.499	678.384	80.008	19.993	103.779	19.964	2.516	0.519
1184.999	678.639	80.008	19.993	103.779	19.962	2.658	0.493
1185.499	678.854	80.009	19.995	103.780	19.964	2.515	0.479
1185.999	679.142	80.007	19.994	103.781	19.962	2.689	0.486
1186.499	679.381	80.007	19.995	103.783	19.967	2.316	0.515
1186.999	679.662	80.008	19.994	103.783	19.963	2.566	0.524
1187.499	679.864	80.009	19.993	103.783	19.958	2.949	0.502
1187.999	680.135	80.008	19.993	103.782	19.964	2.491	0.478
1188.499	680.379	80.008	19.993	103.783	19.965	2.465	0.493
1188.999	680.645	80.007	19.994	103.783	19.965	2.427	0.512
1189.499	680.889	80.009	19.992	103.783	19.964	2.522	0.510
1189.999	681.123	80.006	19.994	103.783	19.964	2.520	0.494
1190.499	681.388	80.008	19.994	103.784	19.963	2.619	0.488
1190.999	681.652	80.007	19.993	103.784	19.966	2.388	0.514
1191.499	681.894	80.007	19.994	103.782	19.965	2.461	0.518
1191.999	682.137	80.008	19.994	103.782	19.966	2.386	0.496
1192.499	682.377	80.008	19.994	103.782	19.966	2.410	0.484
1192.999	682.670	80.007	19.995	103.782	19.967	2.331	0.507
1193.499	682.867	80.008	19.994	103.782	19.965	2.454	0.511
1193.999	683.144	80.007	19.995	103.784	19.961	2.733	0.482
1194.500	683.382	80.010	19.994	103.784	19.965	2.441	0.495
1195.000	683.626	80.008	19.995	103.784	19.961	2.696	0.498
1195.499	683.886	80.007	19.993	103.784	19.964	2.537	0.493
1195.999	684.161	80.009	19.994	103.784	19.964	2.529	0.519
1196.499	684.411	80.009	19.994	103.782	19.964	2.555	0.530
1196.999	684.680	80.009	19.995	103.782	19.966	2.373	0.522
1197.500	684.900	80.008	19.994	103.782	19.966	2.364	0.505
1198.000	685.157	80.009	19.993	103.783	19.964	2.518	0.484
1198.499	685.363	80.010	19.993	103.784	19.966	2.372	0.470
1198.999	685.652	80.008	19.994	103.786	19.966	2.388	0.479
1199.499	685.915	80.009	19.993	103.785	19.967	2.309	0.523
1199.999	686.102	80.009	19.992	103.782	19.966	2.421	0.501
1200.499	686.554	80.010	19.993	103.781	19.962	2.682	0.545
1200.999	686.337	80.009	19.994	103.780	19.967	2.326	0.437
1201.499	686.354	80.010	19.993	103.779	19.967	2.342	0.017
1201.999	687.165	80.010	19.993	103.779	19.964	2.555	0.314
1202.499	687.453	80.011	19.993	103.781	19.965	2.487	0.964
1202.999	687.609	80.010	19.991	103.780	19.963	2.597	0.772
1203.499	687.962	80.011	19.993	103.781	19.963	2.584	0.477
1203.999	688.205	80.010	19.993	103.782	19.967	2.304	0.552
1204.499	688.402	80.010	19.991	103.782	19.962	2.667	0.518
1204.999	688.681	80.010	19.993	103.782	19.966	2.421	0.458
1205.499	688.934	80.009	19.992	103.782	19.964	2.533	0.504
1205.999	689.182	80.009	19.993	103.783	19.967	2.315	0.517
1206.499	689.439	80.011	19.992	103.782	19.966	2.406	0.503
1206.999	689.672	80.010	19.993	103.782	19.964	2.516	0.498
1207.499	689.932	80.009	19.993	103.783	19.964	2.515	0.491
1207.999	690.204	80.011	19.992	103.785	19.964	2.496	0.512
1208.499	690.464	80.010	19.991	103.785	19.964	2.535	0.532
1208.999	690.678	80.009	19.992	103.785	19.965	2.482	0.503
1209.499	690.939	80.009	19.994	103.785	19.964	2.527	0.474
1209.999	691.196	80.011	19.993	103.785	19.964	2.522	0.497
1210.499	691.438	80.009	19.993	103.784	19.961	2.705	0.509
1210.999	691.700	80.009	19.993	103.784	19.960	2.825	0.502
1211.499	691.956	80.008	19.994	103.784	19.963	2.562	0.511
1211.999	692.188	80.009	19.993	103.783	19.961	2.742	0.503
1212.499	692.451	80.009	19.994	103.782	19.964	2.493	0.491
1212.999	692.722	80.010	19.992	103.781	19.964	2.544	0.515
1213.499	692.966	80.009	19.993	103.778	19.963	2.612	0.524
1213.999	693.242	80.009	19.994	103.777	19.966	2.355	0.518
1214.499	693.467	80.008	19.993	103.778	19.962	2.685	0.511
1214.999	693.751	80.008	19.994	103.780	19.964	2.518	0.505
1215.499	693.986	80.009	19.994	103.780	19.962	2.652	0.514
1215.999	694.240	80.009	19.992	103.782	19.963	2.568	0.504
1216.500	694.504	80.008	19.994	103.782	19.964	2.553	0.503
1217.000	694.731	80.008	19.994	103.782	19.964	2.496	0.504
1217.499	695.020	80.008	19.993	103.782	19.966	2.397	0.504
1217.999	695.335	80.008	19.994	103.783	19.967	2.315	0.560
1218.499	695.461	80.009	19.994	103.784	19.964	2.502	0.522
1218.999	695.927	80.008	19.995	103.785	19.963	2.588	0.517
1219.499	696.066	80.009	19.994	103.785	19.962	2.674	0.599
1219.999	696.282	80.008	19.994	103.785	19.961	2.757	0.480
1220.499	696.573	80.008	19.995	103.784	19.966	2.414	0.431
1220.999	696.818	80.009	19.992	103.783	19.963	2.625	0.522
1221.499	697.068	80.008	19.994	103.782	19.963	2.614	0.515
1221.999	697.307	80.010	19.993	103.782	19.964	2.491	0.492
1222.499	697.544	80.009	19.994	103.782	19.966	2.373	0.482
1222.999	697.816	80.008	19.994	103.782	19.965	2.436	0.492
1223.500	698.055	80.010	19.993	103.782	19.964	2.520	0.510
1224.000	698.322	80.009	19.993	103.782	19.962	2.669	0.509
1224.499	698.580	80.011	19.993	103.782	19.968	2.256	0.515
1224.999	698.849	80.011	19.994	103.782	19.965	2.487	0.526
1225.499	699.072	80.010	19.993	103.781	19.965	2.465	0.510
1225.999	699.326	80.011	19.996	103.781	19.963	2.601	0.485
1226.499	699.568	80.010	19.994	103.782	19.966	2.419	0.487
1226.999	699.837	80.010	19.995	103.783	19.967	2.318	0.503
1227.499	700.125	80.010	19.994	103.783	19.963	2.599	0.533
1227.999	700.403	80.009	19.993	103.783	19.966	2.377	0.562
1228.499	700.643	80.011	19.994	103.784	19.966	2.403	0.543
1228.999	700.890	80.011	19.992	103.782	19.964	2.553	0.503
1229.499	701.163	80.010	19.994	103.781	19.965	2.461	0.504
1229.999	701.405	80.010	19.993	103.781	19.966	2.401	0.517
1230.499	701.669	80.011	19.993	103.781	19.964	2.529	0.510
1230.999	701.915	80.012	19.994	103.780	19.966	2.419	0.508
1231.499	702.197	80.010	19.992	103.779	19.966	2.375	0.519
1231.999	702.428	80.010	19.994	103.780	19.963	2.625	0.521
1232.499	702.702	80.010	19.993	103.780	19.966	2.384	0.509
1232.999	702.953	80.011	19.993	103.780	19.968	2.283	0.515
1233.499	703.203	80.009	19.994	103.781	19.964	2.557	0.513
1233.999	703.455	80.009	19.993	103.781	19.963	2.568	0.501
1234.499	703.718	80.009	19.993	103.781	19.965	2.478	0.508
1234.999	703.970	80.009	19.994	103.780	19.963	2.603	0.515
1235.499	704.264	80.009	19.994	103.780	19.965	2.456	0.531
1235.999	704.504	80.008	19.994	103.780	19.963	2.603	0.540
1236.499	704.763	80.008	19.994	103.780	19.965	2.469	0.516
1237.000	705.046	80.008	19.993	103.780	19.970	2.137	0.520
1237.500	705.263	80.009	19.993	103.781	19.964	2.533	0.521
1237.999	705.492	80.007	19.995	103.780	19.965	2.487	0.473
1238.499	705.729	80.008	19.996	103.781	19.966	2.414	0.456
1238.999	706.059	80.008	19.993	103.780	19.962	2.641	0.517
1239.499	706.284	80.008	19.994	103.779	19.965	2.480	0.561
1239.999	706.541	80.008	19.994	103.780	19.963	2.606	0.518
1240.499	706.764	80.009	19.994	103.779	19.961	2.727	0.481
1240.999	707.038	80.008	19.994	103.779	19.961	2.738	0.489
1241.500	707.263	80.008	19.994	103.779	19.964	2.525	0.498
1242.000	707.545	80.007	19.993	103.780	19.963	2.571	0.503
1242.499	707.808	80.008	19.994	103.780	19.962	2.668	0.526
1242.999	708.019	80.009	19.994	103.780	19.964	2.527	0.510
1243.499	708.316	80.008	19.994	103.780	19.964	2.531	0.490
1243.999	708.551	80.007	19.994	103.780	19.964	2.544	0.520
1244.499	708.820	80.008	19.995	103.780	19.964	2.493	0.519
1244.999	709.071	80.007	19.996	103.779	19.964	2.559	0.512
1245.499	709.339	80.008	19.994	103.781	19.964	2.544	0.519
1245.999	709.547	80.007	19.995	103.781	19.961	2.698	0.498
1246.499	709.813	80.008	19.995	103.781	19.964	2.557	0.475
1246.999	710.067	80.008	19.995	103.780	19.964	2.493	0.496
1247.499	710.302	80.008	19.995	103.780	19.965	2.469	0.505
1247.999	710.578	80.008	19.995	103.780	19.964	2.529	0.500
1248.499	710.807	80.009	19.996	103.780	19.964	2.553	0.508
1248.999	711.057	80.009	19.995	103.779	19.964	2.553	0.492
1249.499	711.323	80.009	19.994	103.778	19.964	2.557	0.498
1249.999	711.548	80.009	19.995	103.778	19.967	2.346	0.503
1250.499	711.840	80.009	19.994	103.778	19.961	2.702	0.504
1250.999	712.070	80.007	19.994	103.777	19.962	2.641	0.520
1251.499	712.289	80.008	19.994	103.773	19.962	2.667	0.486
1251.999	712.523	80.010	19.996	103.768	19.961	2.705	0.451
1252.499	712.812	80.008	19.994	103.767	19.963	2.604	0.488
1252.999	713.067	80.008	19.994	103.766	19.965	2.472	0.534
1253.499	713.308	80.008	19.994	103.767	19.963	2.610	0.520
1253.999	713.538	80.008	19.994	103.772	19.960	2.784	0.483
1254.499	713.814	80.009	19.994	103.778	19.959	2.858	0.489
1254.999	714.063	80.008	19.994	103.779	19.958	2.942	0.515
1255.499	714.312	80.008	19.993	103.780	19.961	2.757	0.511
1255.999	714.523	80.009	19.993	103.780	19.962	2.656	0.479
1256.499	714.819	80.009	19.993	103.780	19.964	2.515	0.483
1257.000	715.077	80.009	19.993	103.780	19.961	2.759	0.531
1257.500	715.317	80.008	19.994	103.780	19.962	2.692	0.526
1257.999	715.533	80.009	19.992	103.781	19.964	2.509	0.477
1258.499	715.814	80.007	19.993	103.780	19.962	2.683	0.477
1258.999	716.102	80.008	19.992	103.780	19.962	2.692	0.533
1259.499	716.359	80.008	19.993	103.780	19.959	2.863	0.557
1259.999	716.595	80.008	19.993	103.781	19.963	2.604	0.519
1260.499	716.859	80.008	19.993	103.780	19.960	2.823	0.497
1260.999	717.142	80.008	19.993	103.782	19.963	2.601	0.524
1261.499	717.378	80.008	19.993	103.782	19.963	2.597	0.533
1261.999	717.645	80.009	19.994	103.783	19.962	2.650	0.511
1262.499	717.868	80.009	19.993	103.783	19.963	2.603	0.497
1262.999	718.142	80.007	19.992	103.784	19.963	2.595	0.494
1263.499	718.355	80.008	19.993	103.784	19.961	2.718	0.492
1263.999	718.642	80.008	19.993	103.785	19.964	2.494	0.493
1264.499	718.919	80.009	19.992	103.785	19.961	2.744	0.532
1264.999	719.129	80.008	19.992	103.784	19.965	2.432	0.525
1265.499	719.399	80.008	19.993	103.784	19.961	2.731	0.484
1265.999	719.625	80.008	19.992	103.784	19.961	2.760	0.488
1266.499	719.879	80.008	19.994	103.784	19.962	2.661	0.488
1267.000	720.136	80.008	19.993	103.785	19.964	2.498	0.495
1267.500	720.364	80.007	19.993	103.785	19.965	2.461	0.498
1267.999	720.626	80.007	19.992	103.782	19.961	2.737	0.487
1268.500	720.888	80.007	19.992	103.781	19.963	2.573	0.507
1269.000	721.128	80.008	19.992	103.779	19.962	2.663	0.513
1269.500	721.371	80.008	19.993	103.779	19.962	2.682	0.493
1270.000	721.614	80.008	19.993	103.779	19.962	2.694	0.484
1270.500	721.875	80.006	19.992	103.782	19.961	2.703	0.495
1271.000	722.109	80.008	19.993	103.783	19.963	2.625	0.499
1271.500	722.389	80.008	19.993	103.784	19.963	2.564	0.505
1272.000	722.593	80.008	19.995	103.785	19.960	2.815	0.499
1272.499	722.895	80.007	19.993	103.785	19.963	2.597	0.495
1272.999	723.153	80.007	19.992	103.785	19.962	2.674	0.533
1273.499	723.389	80.008	19.993	103.785	19.962	2.674	0.527
1274.000	723.686	80.007	19.993	103.784	19.960	2.773	0.513
1274.500	723.905	80.007	19.993	103.784	19.963	2.597	0.525
1274.999	724.132	80.008	19.994	103.782	19.962	2.694	0.482
1275.500	724.396	80.007	19.993	103.782	19.961	2.742	0.469
1276.000	724.633	80.008	19.993	103.783	19.962	2.658	0.496
1276.499	724.902	80.009	19.993	103.783	19.962	2.672	0.503
1277.000	725.221	80.007	19.994	103.783	19.963	2.588	0.547
1277.500	725.438	80.007	19.993	103.785	19.962	2.665	0.562
1277.999	725.689	80.008	19.993	103.786	19.962	2.693	0.502
1278.499	725.928	80.008	19.993	103.786	19.960	2.790	0.479
1278.999	726.193	80.010	19.993	103.787	19.961	2.749	0.497
1279.499	726.475	80.008	19.993	103.786	19.960	2.766	0.525
1279.999	726.697	80.009	19.994	103.785	19.961	2.703	0.525
1280.499	726.931	80.009	19.994	103.785	19.962	2.694	0.480
1281.000	727.212	80.009	19.992	103.782	19.963	2.619	0.486
1281.500	727.440	80.010	19.993	103.782	19.959	2.846	0.512
1282.000	727.725	80.009	19.994	103.780	19.963	2.623	0.511
1282.500	727.943	80.009	19.992	103.778	19.962	2.691	0.508
1282.999	728.200	80.010	19.993	103.778	19.960	2.817	0.489
1283.499	728.428	80.009	19.994	103.780	19.963	2.602	0.480
1283.999	728.719	80.009	19.993	103.780	19.964	2.518	0.502
1284.499	728.982	80.009	19.993	103.781	19.962	2.643	0.536
1284.999	729.215	80.009	19.994	103.781	19.961	2.703	0.525
1285.499	729.444	80.010	19.992	103.780	19.960	2.769	0.479
1285.999	729.748	80.009	19.993	103.780	19.962	2.644	0.498
1286.500	729.970	80.008	19.994	103.781	19.961	2.742	0.529
1287.000	730.242	80.009	19.993	103.783	19.961	2.719	0.510
1287.500	730.484	80.009	19.994	103.784	19.959	2.855	0.504
1287.999	730.721	80.009	19.992	103.786	19.962	2.641	0.497
1288.499	731.014	80.009	19.993	103.785	19.964	2.547	0.505
1288.999	731.260	80.009	19.992	103.785	19.964	2.516	0.534
1289.499	731.509	80.009	19.994	103.784	19.964	2.536	0.517
1289.999	731.752	80.009	19.993	103.783	19.967	2.318	0.494
1290.499	732.009	80.008	19.994	103.781	19.964	2.520	0.496
1290.999	732.240	80.009	19.992	103.776	19.967	2.351	0.494
1291.499	732.505	80.009	19.994	103.775	19.966	2.388	0.492
1291.999	732.773	80.009	19.992	103.775	19.964	2.547	0.515
1292.499	733.004	80.008	19.994	103.772	19.965	2.448	0.517
1293.000	733.256	80.011	19.992	103.774	19.963	2.578	0.491
1293.500	733.524	80.009	19.992	103.778	19.962	2.672	0.501
1293.999	733.776	80.009	19.993	103.776	19.966	2.399	0.520
1294.500	734.040	80.009	19.993	103.776	19.962	2.632	0.518
1295.000	734.318	80.009	19.994	103.778	19.962	2.676	0.529
1295.499	734.552	80.010	19.993	103.777	19.963	2.602	0.527
1295.999	734.812	80.009	19.994	103.775	19.964	2.555	0.503
1296.500	735.060	80.008	19.993	103.776	19.961	2.718	0.501
1297.000	735.276	80.010	19.993	103.770	19.963	2.580	0.486
1297.500	735.545	80.009	19.994	103.765	19.962	2.648	0.475
1298.000	735.751	80.010	19.993	103.763	19.962	2.646	0.480
1298.500	736.042	80.010	19.994	103.764	19.966	2.386	0.486
1299.000	736.286	80.009	19.993	103.766	19.965	2.463	0.515
1299.500	736.544	80.009	19.994	103.769	19.964	2.524	0.518
1299.999	736.803	80.009	19.993	103.774	19.961	2.707	0.510
1300.499	737.063	80.010	19.993	103.778	19.963	2.610	0.518
1300.999	737.278	80.009	19.994	103.779	19.962	2.656	0.497
1301.499	737.554	80.009	19.994	103.775	19.960	2.810	0.483
1301.999	737.832	80.010	19.993	103.773	19.965	2.467	0.522
1302.499	738.046	80.010	19.993	103.770	19.964	2.525	0.523
1302.999	738.321	80.010	19.993	103.769	19.962	2.665	0.491
1303.499	738.583	80.010	19.992	103.768	19.964	2.542	0.513
1303.999	738.822	80.010	19.993	103.771	19.965	2.478	0.519
1304.499	739.085	80.011	19.994	103.773	19.964	2.514	0.502
1304.999	739.366	80.010	19.993	103.774	19.965	2.437	0.524
1305.499	739.597	80.011	19.993	103.773	19.965	2.436	0.528
1305.999	739.848	80.011	19.992	103.773	19.964	2.522	0.497
1306.499	740.108	80.010	19.994	103.772	19.966	2.419	0.496
1306.999	740.348	80.010	19.993	103.773	19.965	2.470	0.505
1307.499	740.578	80.011	19.993	103.772	19.965	2.467	0.485
1307.999	740.843	80.010	19.994	103.773	19.965	2.483	0.483
1308.499	741.076	80.011	19.993	103.774	19.964	2.494	0.496
1308.999	741.318	80.011	19.993	103.777	19.963	2.579	0.486
1309.499	741.572	80.010	19.994	103.778	19.965	2.456	0.485
1309.999	741.839	80.010	19.994	103.780	19.963	2.566	0.509
1310.499	742.093	80.011	19.994	103.781	19.964	2.496	0.521
1310.999	742.357	80.011	19.993	103.781	19.967	2.346	0.519
1311.499	742.597	80.011	19.993	103.781	19.963	2.564	0.511
1311.999	742.828	80.010	19.993	103.781	19.963	2.564	0.487
1312.499	743.100	80.010	19.994	103.780	19.963	2.579	0.487
1312.999	743.339	80.009	19.994	103.779	19.966	2.415	0.507
1313.499	743.590	80.008	19.993	103.777	19.966	2.379	0.501
1313.999	743.833	80.009	19.994	103.775	19.962	2.643	0.492
1314.499	744.095	80.009	19.994	103.775	19.964	2.509	0.499
1314.999	744.343	80.010	19.995	103.776	19.964	2.520	0.507
1315.499	744.578	80.008	19.994	103.777	19.962	2.639	0.497
1315.999	744.849	80.008	19.994	103.779	19.963	2.601	0.495
1316.499	745.097	80.009	19.995	103.781	19.964	2.514	0.512
1316.999	745.358	80.009	19.994	103.780	19.961	2.696	0.514
