Sample ID:	C:\MCC\MCC Cal\Test\Cotton_Rug_MCC_30K_min_211115_R3.txt
Sample Weight (mg):	4.11
Heating Rate (C/s):	0.5
Combustor Temp (C):	900
N2 Flow Rate (cc/min):	80
O2 Flow Rate (cc/min):	20
Calibration File:	C:\MCC\MCC Cal\Coeff1 JN10440_30_210304.txt.txt
T Correction Coefficients:	0	1.024463	0
Time Shift (s):	14
*
Time (s)	Temperature (C)	N2 flow rate (cc/min)	O2 flow rate (cc/min)	Flow Rate (cc/min)	Oxygen (%)	HRR (W/g)	Heating rate (C/s)
-0.001	110.002	80.006	19.993	103.098	20.083	0.126	0.011
0.499	110.025	80.006	19.995	103.095	20.084	0.002	0.032
0.999	109.991	80.007	19.994	103.094	20.084	0.006	0.012
1.500	109.986	80.005	19.994	103.094	20.085	-0.062	-0.025
2.000	109.970	80.006	19.994	103.094	20.085	-0.026	-0.030
2.499	109.992	80.005	19.994	103.094	20.086	-0.156	-0.008
2.999	110.008	80.007	19.994	103.097	20.082	0.148	0.022
3.499	110.015	80.005	19.994	103.098	20.084	0.034	0.031
3.999	110.008	80.006	19.994	103.098	20.083	0.071	0.012
4.499	109.991	80.006	19.994	103.099	20.080	0.313	-0.012
4.999	110.001	80.006	19.994	103.099	20.083	0.131	-0.016
5.500	110.000	80.006	19.994	103.099	20.085	-0.039	0.001
6.000	109.968	80.006	19.994	103.099	20.083	0.131	-0.012
6.499	109.968	80.005	19.993	103.100	20.083	0.133	-0.032
6.999	109.980	80.010	19.994	103.099	20.082	0.163	-0.010
7.499	109.975	80.025	19.999	103.099	20.082	0.169	0.010
7.999	109.967	80.017	19.997	103.102	20.083	0.066	-0.003
8.499	109.929	80.006	19.997	103.102	20.082	0.204	-0.030
8.999	109.956	80.006	19.997	103.102	20.084	-0.002	-0.029
9.499	109.986	80.004	19.996	103.102	20.083	0.079	0.023
9.999	109.967	80.007	19.994	103.102	20.084	0.041	0.034
10.499	109.974	80.005	19.994	103.099	20.082	0.193	-0.000
10.999	109.998	80.006	19.995	103.098	20.081	0.229	0.010
11.500	109.946	80.004	19.994	103.099	20.084	0.062	0.001
12.000	109.972	80.006	19.995	103.097	20.083	0.081	-0.027
12.500	109.939	80.005	19.995	103.096	20.080	0.300	-0.016
12.999	109.958	80.006	19.995	103.096	20.083	0.094	-0.011
13.499	109.923	80.007	19.995	103.096	20.083	0.092	-0.015
13.999	109.949	80.004	19.995	103.096	20.080	0.356	-0.013
14.500	109.933	80.006	19.994	103.097	20.082	0.156	0.000
15.000	109.946	80.005	19.995	103.098	20.084	0.058	0.004
15.499	109.908	80.006	19.994	103.097	20.081	0.276	-0.014
15.999	109.925	80.006	19.995	103.097	20.081	0.285	-0.023
16.499	109.953	80.004	19.994	103.096	20.079	0.414	0.012
16.999	109.946	80.006	19.995	103.096	20.079	0.416	0.033
17.499	109.931	80.006	19.995	103.096	20.084	0.032	-0.001
17.999	109.915	80.006	19.995	103.101	20.083	0.079	-0.027
18.499	109.901	80.006	19.996	103.105	20.079	0.427	-0.030
19.000	109.871	80.006	19.995	103.112	20.081	0.283	-0.037
19.500	109.942	80.006	19.994	103.116	20.084	0.058	-0.002
20.000	109.882	80.007	19.995	103.118	20.085	-0.058	0.026
20.499	109.902	80.004	19.995	103.115	20.086	-0.112	-0.015
20.999	109.902	80.006	19.995	103.112	20.084	0.049	-0.010
21.499	109.912	80.007	19.995	103.109	20.085	-0.026	0.015
21.999	109.881	80.006	19.996	103.108	20.087	-0.223	-0.006
22.499	109.902	80.007	19.994	103.106	20.086	-0.099	-0.016
22.999	109.850	80.006	19.995	103.104	20.088	-0.286	-0.020
23.499	109.879	80.005	19.994	103.105	20.086	-0.142	-0.027
23.999	109.867	80.008	19.995	103.109	20.084	0.002	-0.003
24.499	109.883	80.008	19.995	103.109	20.085	-0.024	0.010
24.999	109.884	80.007	19.995	103.114	20.082	0.167	0.010
25.499	109.866	80.010	19.994	103.115	20.078	0.481	0.000
25.999	109.889	80.007	19.995	103.112	20.075	0.734	-0.006
26.499	109.828	80.007	19.995	103.112	20.071	1.009	-0.017
26.999	109.864	80.007	19.994	103.125	20.072	1.005	-0.031
27.499	109.852	80.007	19.994	103.144	20.073	0.887	-0.000
28.000	109.842	80.010	19.994	103.174	20.069	1.164	0.001
28.500	109.878	80.009	19.994	103.205	20.067	1.387	0.002
28.999	109.906	80.007	19.994	103.231	20.066	1.430	0.045
29.499	109.890	80.009	19.994	103.252	20.063	1.677	0.038
29.999	109.871	80.005	19.994	103.267	20.058	2.051	-0.012
30.499	109.889	80.007	19.993	103.280	20.054	2.348	-0.018
30.999	109.915	80.008	19.994	103.296	20.053	2.444	0.022
31.499	109.936	80.009	19.994	103.308	20.055	2.330	0.045
31.999	109.978	80.008	19.993	103.315	20.050	2.670	0.055
32.500	110.026	80.008	19.993	103.322	20.048	2.844	0.076
33.000	110.035	80.008	19.993	103.325	20.049	2.801	0.073
33.499	110.087	80.008	19.994	103.326	20.048	2.831	0.059
33.999	110.102	80.008	19.994	103.329	20.046	3.005	0.064
34.499	110.130	80.008	19.993	103.329	20.046	3.039	0.055
35.000	110.222	80.007	19.992	103.327	20.046	2.979	0.082
35.500	110.264	80.006	19.993	103.326	20.040	3.496	0.127
35.999	110.301	80.007	19.994	103.325	20.040	3.455	0.107
36.499	110.382	80.006	19.994	103.324	20.039	3.563	0.098
36.999	110.399	80.007	19.993	103.325	20.041	3.423	0.107
37.499	110.475	80.005	19.993	103.329	20.039	3.557	0.095
37.999	110.528	80.007	19.994	103.332	20.038	3.667	0.112
38.499	110.589	80.006	19.994	103.331	20.036	3.815	0.122
38.999	110.632	80.007	19.993	103.331	20.036	3.768	0.109
39.499	110.692	80.005	19.995	103.333	20.038	3.607	0.104
39.999	110.748	80.006	19.994	103.337	20.034	3.955	0.110
40.499	110.859	80.007	19.994	103.342	20.031	4.176	0.141
40.999	110.928	80.008	19.993	103.351	20.036	3.817	0.173
41.499	110.962	80.006	19.994	103.359	20.031	4.156	0.141
41.999	111.084	80.006	19.994	103.360	20.037	3.705	0.130
42.499	111.174	80.006	19.994	103.360	20.033	4.006	0.185
42.999	111.251	80.006	19.994	103.360	20.033	3.991	0.190
43.499	111.306	80.005	19.993	103.360	20.035	3.899	0.149
43.999	111.410	80.006	19.994	103.360	20.032	4.075	0.145
44.499	111.474	80.004	19.994	103.358	20.033	4.036	0.164
44.999	111.564	80.005	19.994	103.356	20.031	4.203	0.161
45.499	111.671	80.007	19.994	103.350	20.033	3.990	0.176
45.999	111.753	80.006	19.994	103.343	20.030	4.233	0.193
46.499	111.884	80.006	19.994	103.337	20.029	4.327	0.201
46.999	111.979	80.005	19.995	103.343	20.027	4.484	0.219
47.499	112.064	80.007	19.993	103.347	20.030	4.289	0.203
47.999	112.160	80.002	19.994	103.353	20.029	4.368	0.181
48.499	112.285	80.007	19.994	103.361	20.029	4.364	0.201
48.999	112.379	80.005	19.994	103.368	20.030	4.227	0.220
49.499	112.478	80.005	19.994	103.369	20.030	4.266	0.206
49.999	112.539	80.005	19.995	103.370	20.027	4.508	0.176
50.499	112.706	80.006	19.994	103.370	20.030	4.244	0.194
50.999	112.786	80.006	19.993	103.370	20.028	4.380	0.238
51.500	112.950	80.007	19.994	103.369	20.028	4.425	0.246
52.000	113.037	80.006	19.993	103.369	20.030	4.274	0.247
52.499	113.163	80.006	19.994	103.369	20.029	4.321	0.232
52.999	113.315	80.004	19.994	103.370	20.031	4.175	0.246
53.499	113.426	80.007	19.995	103.371	20.029	4.347	0.271
53.999	113.573	80.005	19.994	103.371	20.031	4.177	0.260
54.499	113.673	80.004	19.995	103.366	20.029	4.332	0.253
54.999	113.818	80.005	19.993	103.366	20.029	4.340	0.246
55.499	113.972	80.006	19.993	103.363	20.029	4.336	0.272
55.999	114.119	80.006	19.994	103.358	20.030	4.295	0.300
56.499	114.245	80.006	19.993	103.352	20.033	4.053	0.287
56.999	114.397	80.006	19.994	103.350	20.033	4.003	0.276
57.499	114.519	80.007	19.994	103.346	20.033	3.995	0.276
57.999	114.660	80.006	19.995	103.346	20.033	4.055	0.268
58.499	114.786	80.004	19.994	103.351	20.033	4.063	0.265
58.999	114.957	80.006	19.996	103.355	20.031	4.205	0.282
59.499	115.090	80.006	19.993	103.358	20.032	4.136	0.300
59.999	115.235	80.005	19.993	103.362	20.030	4.231	0.291
60.499	115.327	80.007	19.995	103.363	20.031	4.221	0.257
60.999	115.521	80.006	19.994	103.363	20.030	4.240	0.261
61.499	115.653	80.007	19.995	103.364	20.030	4.292	0.306
61.999	115.815	80.006	19.994	103.367	20.030	4.285	0.310
62.500	115.942	80.005	19.994	103.368	20.030	4.298	0.292
63.000	116.112	80.006	19.994	103.364	20.027	4.479	0.293
63.499	116.268	80.005	19.993	103.360	20.030	4.290	0.312
63.999	116.388	80.006	19.993	103.355	20.028	4.408	0.301
64.499	116.638	80.007	19.993	103.354	20.029	4.339	0.323
64.999	116.740	80.007	19.994	103.350	20.027	4.532	0.361
65.499	116.894	80.004	19.993	103.347	20.028	4.406	0.304
65.999	117.079	80.007	19.994	103.348	20.030	4.255	0.297
66.499	117.231	80.003	19.994	103.351	20.028	4.431	0.338
66.999	117.370	80.003	19.994	103.350	20.034	3.980	0.314
67.499	117.580	80.006	19.994	103.351	20.029	4.365	0.320
67.999	117.726	80.006	19.993	103.355	20.028	4.431	0.352
68.499	117.893	80.005	19.994	103.352	20.029	4.378	0.334
68.999	118.056	80.005	19.994	103.347	20.032	4.131	0.321
69.499	118.243	80.006	19.994	103.346	20.028	4.412	0.340
69.999	118.410	80.006	19.994	103.348	20.028	4.406	0.352
70.499	118.561	80.004	19.994	103.350	20.026	4.541	0.336
70.999	118.777	80.004	19.994	103.357	20.027	4.468	0.343
71.499	118.937	80.004	19.993	103.364	20.029	4.335	0.372
71.999	119.081	80.003	19.993	103.369	20.029	4.352	0.340
72.499	119.278	80.004	19.994	103.370	20.027	4.472	0.323
72.999	119.442	80.005	19.994	103.371	20.027	4.526	0.351
73.499	119.629	80.005	19.993	103.371	20.027	4.487	0.356
73.999	119.758	80.004	19.993	103.371	20.028	4.422	0.333
74.499	119.965	80.006	19.993	103.370	20.028	4.439	0.326
74.999	120.148	80.005	19.993	103.369	20.026	4.538	0.363
75.499	120.343	80.006	19.993	103.369	20.028	4.394	0.384
75.999	120.503	80.004	19.994	103.369	20.027	4.483	0.367
76.499	120.692	80.007	19.993	103.370	20.027	4.517	0.352
76.999	120.857	80.004	19.994	103.370	20.029	4.337	0.352
77.499	121.039	80.003	19.993	103.372	20.027	4.483	0.350
77.999	121.250	80.005	19.992	103.372	20.028	4.414	0.369
78.499	121.445	80.004	19.994	103.372	20.029	4.332	0.400
78.999	121.653	80.005	19.994	103.372	20.029	4.325	0.405
79.499	121.802	80.006	19.993	103.373	20.027	4.472	0.380
79.999	122.010	80.007	19.994	103.373	20.029	4.341	0.357
80.499	122.219	80.005	19.994	103.372	20.027	4.500	0.387
80.999	122.435	80.005	19.995	103.370	20.029	4.311	0.421
81.499	122.611	80.006	19.993	103.369	20.027	4.530	0.408
81.999	122.817	80.007	19.994	103.368	20.030	4.300	0.387
82.499	123.024	80.005	19.993	103.368	20.027	4.498	0.397
82.999	123.221	80.007	19.994	103.368	20.029	4.348	0.408
83.499	123.438	80.007	19.995	103.369	20.025	4.663	0.409
83.999	123.564	80.006	19.995	103.368	20.029	4.309	0.379
84.499	123.783	80.006	19.995	103.365	20.025	4.678	0.344
84.999	123.999	80.005	19.995	103.359	20.028	4.388	0.390
85.499	124.223	80.006	19.994	103.357	20.027	4.511	0.438
85.999	124.361	80.008	19.995	103.356	20.027	4.483	0.401
86.499	124.634	80.008	19.994	103.356	20.027	4.513	0.387
86.999	124.762	80.008	19.994	103.359	20.025	4.616	0.406
87.499	124.993	80.006	19.994	103.366	20.030	4.233	0.379
87.999	125.196	80.008	19.994	103.366	20.029	4.343	0.396
88.499	125.390	80.005	19.994	103.361	20.027	4.478	0.416
88.999	125.624	80.007	19.995	103.356	20.028	4.397	0.413
89.499	125.827	80.008	19.994	103.355	20.027	4.481	0.433
89.999	126.028	80.010	19.994	103.354	20.027	4.496	0.420
90.499	126.247	80.007	19.994	103.356	20.028	4.380	0.412
90.999	126.481	80.008	19.995	103.361	20.026	4.607	0.437
91.499	126.696	80.009	19.994	103.366	20.027	4.511	0.451
91.999	126.870	80.008	19.994	103.367	20.029	4.354	0.419
92.499	127.096	80.007	19.994	103.368	20.025	4.631	0.395
92.999	127.320	80.008	19.995	103.368	20.027	4.470	0.425
93.499	127.518	80.005	19.995	103.368	20.027	4.496	0.436
93.999	127.697	80.008	19.995	103.368	20.029	4.334	0.399
94.499	127.927	80.006	19.994	103.367	20.025	4.622	0.393
94.999	128.170	80.006	19.995	103.367	20.023	4.775	0.441
95.499	128.401	80.007	19.995	103.367	20.029	4.324	0.474
95.999	128.617	80.007	19.994	103.364	20.027	4.467	0.460
96.499	128.811	80.009	19.994	103.364	20.026	4.587	0.428
96.999	129.008	80.008	19.994	103.363	20.027	4.497	0.400
97.499	129.265	80.007	19.995	103.358	20.025	4.656	0.423
97.999	129.459	80.008	19.994	103.357	20.030	4.293	0.453
98.499	129.678	80.006	19.994	103.358	20.028	4.447	0.432
98.999	129.893	80.006	19.994	103.357	20.030	4.230	0.424
99.499	130.108	80.008	19.995	103.358	20.028	4.385	0.432
99.999	130.317	80.008	19.995	103.363	20.027	4.497	0.427
100.499	130.562	80.008	19.994	103.364	20.026	4.575	0.439
100.999	130.794	80.006	19.995	103.365	20.029	4.313	0.466
101.499	130.995	80.008	19.995	103.367	20.027	4.463	0.455
101.999	131.209	80.007	19.995	103.366	20.029	4.304	0.424
102.499	131.455	80.008	19.994	103.366	20.024	4.727	0.437
102.999	131.650	80.008	19.994	103.364	20.027	4.506	0.450
103.499	131.908	80.006	19.995	103.364	20.027	4.482	0.447
103.999	132.098	80.006	19.995	103.364	20.028	4.444	0.450
104.499	132.346	80.008	19.995	103.365	20.029	4.306	0.442
104.999	132.571	80.009	19.994	103.364	20.028	4.392	0.455
105.499	132.777	80.006	19.994	103.365	20.030	4.267	0.452
105.999	133.009	80.007	19.994	103.365	20.028	4.383	0.435
106.499	133.248	80.007	19.995	103.360	20.029	4.359	0.455
106.999	133.423	80.008	19.996	103.356	20.029	4.338	0.443
107.499	133.687	80.005	19.995	103.352	20.027	4.523	0.426
107.999	133.927	80.009	19.994	103.345	20.027	4.510	0.471
108.499	134.147	80.010	19.995	103.339	20.031	4.188	0.482
108.999	134.356	80.007	19.994	103.338	20.029	4.317	0.445
109.499	134.640	80.009	19.995	103.335	20.029	4.370	0.461
109.999	134.866	80.008	19.996	103.340	20.027	4.525	0.501
110.499	135.073	80.008	19.995	103.345	20.029	4.306	0.471
110.999	135.295	80.008	19.994	103.347	20.028	4.448	0.431
111.499	135.552	80.007	19.994	103.354	20.027	4.502	0.454
111.999	135.764	80.009	19.995	103.359	20.028	4.425	0.474
112.499	136.010	80.009	19.995	103.359	20.026	4.588	0.464
112.999	136.271	80.008	19.995	103.359	20.026	4.579	0.482
113.499	136.496	80.008	19.995	103.360	20.028	4.388	0.496
113.999	136.692	80.009	19.994	103.360	20.028	4.379	0.454
114.499	136.932	80.008	19.995	103.358	20.027	4.531	0.429
114.999	137.152	80.007	19.995	103.354	20.027	4.480	0.448
115.499	137.410	80.008	19.994	103.350	20.029	4.370	0.468
115.999	137.618	80.009	19.994	103.346	20.029	4.354	0.472
116.499	137.882	80.009	19.994	103.339	20.028	4.386	0.470
116.999	138.134	80.006	19.996	103.337	20.029	4.319	0.494
117.499	138.374	80.006	19.995	103.342	20.030	4.270	0.504
118.000	138.589	80.007	19.995	103.348	20.030	4.276	0.473
118.499	138.828	80.006	19.995	103.349	20.032	4.079	0.455
118.999	139.083	80.005	19.995	103.352	20.029	4.323	0.474
119.499	139.315	80.004	19.995	103.353	20.031	4.203	0.490
119.999	139.560	80.005	19.994	103.350	20.031	4.184	0.482
120.499	139.801	80.005	19.994	103.347	20.031	4.175	0.482
120.999	140.033	80.006	19.995	103.350	20.029	4.349	0.480
121.499	140.269	80.004	19.995	103.355	20.031	4.190	0.470
121.999	140.524	80.005	19.995	103.359	20.033	4.001	0.479
122.499	140.741	80.005	19.994	103.362	20.029	4.306	0.481
122.999	141.013	80.004	19.995	103.366	20.031	4.179	0.481
123.499	141.242	80.006	19.994	103.364	20.029	4.332	0.495
123.999	141.501	80.006	19.994	103.359	20.028	4.396	0.495
124.499	141.683	80.008	19.995	103.351	20.028	4.384	0.465
124.999	141.959	80.004	19.994	103.345	20.027	4.478	0.449
125.499	142.175	80.005	19.994	103.343	20.031	4.188	0.475
125.999	142.420	80.008	19.994	103.345	20.029	4.323	0.477
126.499	142.645	80.006	19.994	103.350	20.030	4.261	0.466
126.999	142.887	80.007	19.993	103.357	20.029	4.331	0.468
127.499	143.120	80.006	19.995	103.361	20.030	4.278	0.471
127.999	143.410	80.007	19.994	103.364	20.028	4.411	0.499
128.499	143.642	80.004	19.994	103.365	20.029	4.329	0.522
128.999	143.888	80.006	19.994	103.357	20.028	4.424	0.500
129.499	144.144	80.007	19.993	103.355	20.028	4.456	0.490
129.999	144.395	80.005	19.995	103.356	20.027	4.488	0.505
130.499	144.645	80.004	19.993	103.352	20.030	4.248	0.504
130.999	144.860	80.004	19.994	103.349	20.029	4.370	0.483
131.499	145.109	80.005	19.994	103.353	20.029	4.319	0.464
131.999	145.344	80.006	19.993	103.354	20.028	4.404	0.474
132.499	145.615	80.007	19.995	103.351	20.028	4.402	0.495
132.999	145.859	80.003	19.994	103.353	20.027	4.482	0.510
133.499	146.114	80.005	19.993	103.351	20.029	4.340	0.507
133.999	146.323	80.005	19.994	103.348	20.028	4.387	0.481
134.499	146.555	80.006	19.994	103.351	20.028	4.393	0.453
134.999	146.807	80.006	19.994	103.355	20.032	4.095	0.463
135.499	147.104	80.005	19.994	103.356	20.029	4.376	0.517
135.999	147.272	80.007	19.994	103.355	20.032	4.121	0.507
136.499	147.594	80.006	19.994	103.355	20.028	4.454	0.477
136.999	147.783	80.007	19.994	103.349	20.030	4.250	0.501
137.499	148.016	80.006	19.993	103.342	20.028	4.411	0.467
137.999	148.248	80.007	19.994	103.340	20.030	4.254	0.443
138.499	148.519	80.006	19.994	103.340	20.029	4.367	0.484
138.999	148.777	80.004	19.993	103.339	20.031	4.146	0.516
139.499	149.027	80.006	19.994	103.339	20.033	4.017	0.518
139.999	149.262	80.005	19.994	103.339	20.030	4.275	0.496
140.499	149.532	80.007	19.994	103.339	20.033	4.045	0.495
140.999	149.770	80.005	19.994	103.341	20.028	4.387	0.507
141.499	150.014	80.008	19.994	103.343	20.035	3.899	0.495
141.999	150.237	80.006	19.994	103.342	20.032	4.121	0.475
142.499	150.447	80.006	19.994	103.342	20.030	4.282	0.450
142.999	150.734	80.006	19.995	103.340	20.030	4.290	0.465
143.499	150.989	80.006	19.994	103.337	20.029	4.354	0.520
143.999	151.229	80.006	19.994	103.337	20.032	4.097	0.519
144.499	151.468	80.007	19.994	103.337	20.031	4.159	0.487
144.999	151.730	80.006	19.994	103.336	20.031	4.146	0.490
145.499	151.995	80.005	19.994	103.335	20.031	4.157	0.514
145.999	152.222	80.005	19.994	103.335	20.032	4.088	0.509
146.499	152.483	80.007	19.994	103.334	20.031	4.215	0.490
146.999	152.704	80.006	19.994	103.339	20.031	4.144	0.486
147.499	152.952	80.005	19.994	103.340	20.029	4.320	0.476
147.999	153.206	80.006	19.994	103.339	20.032	4.140	0.485
148.499	153.427	80.007	19.994	103.338	20.030	4.288	0.488
148.999	153.694	80.006	19.994	103.334	20.031	4.193	0.482
149.499	153.925	80.007	19.994	103.329	20.031	4.191	0.493
149.999	154.184	80.006	19.994	103.327	20.031	4.202	0.494
150.499	154.428	80.006	19.994	103.327	20.028	4.408	0.496
150.999	154.644	80.005	19.994	103.328	20.032	4.084	0.482
151.499	154.872	80.005	19.994	103.331	20.028	4.423	0.452
151.999	155.137	80.006	19.993	103.330	20.032	4.084	0.468
152.499	155.394	80.005	19.994	103.331	20.032	4.133	0.507
152.999	155.655	80.004	19.994	103.330	20.029	4.316	0.520
153.499	155.891	80.007	19.994	103.329	20.027	4.473	0.507
153.999	156.138	80.004	19.994	103.328	20.029	4.309	0.490
154.499	156.405	80.005	19.994	103.325	20.030	4.226	0.499
154.999	156.630	80.006	19.994	103.324	20.031	4.204	0.503
155.499	156.895	80.005	19.994	103.325	20.029	4.342	0.491
155.999	157.109	80.006	19.994	103.326	20.028	4.402	0.484
156.499	157.376	80.005	19.995	103.327	20.028	4.449	0.480
156.999	157.619	80.006	19.994	103.329	20.028	4.382	0.495
157.499	157.849	80.006	19.995	103.327	20.029	4.376	0.491
157.999	158.101	80.006	19.994	103.326	20.029	4.365	0.478
158.499	158.345	80.006	19.995	103.325	20.029	4.354	0.489
158.999	158.613	80.007	19.995	103.322	20.032	4.069	0.504
159.499	158.846	80.006	19.994	103.323	20.030	4.279	0.507
159.999	159.061	80.006	19.994	103.326	20.030	4.253	0.475
160.499	159.309	80.006	19.994	103.328	20.030	4.245	0.456
160.999	159.596	80.007	19.993	103.329	20.030	4.240	0.499
161.499	159.842	80.007	19.993	103.331	20.031	4.169	0.534
161.999	160.043	80.006	19.993	103.328	20.031	4.154	0.490
162.499	160.325	80.006	19.994	103.326	20.030	4.246	0.465
162.999	160.552	80.007	19.994	103.323	20.032	4.132	0.496
163.499	160.797	80.008	19.994	103.324	20.028	4.392	0.491
163.999	161.048	80.007	19.994	103.324	20.030	4.293	0.484
164.499	161.284	80.008	19.994	103.327	20.028	4.407	0.491
164.999	161.554	80.007	19.995	103.329	20.029	4.319	0.496
165.499	161.782	80.007	19.993	103.332	20.030	4.291	0.502
165.999	162.037	80.008	19.993	103.331	20.031	4.163	0.491
166.499	162.300	80.008	19.993	103.331	20.029	4.305	0.501
166.999	162.529	80.007	19.993	103.331	20.030	4.238	0.505
167.499	162.793	80.008	19.994	103.330	20.032	4.111	0.492
167.999	163.033	80.007	19.994	103.329	20.031	4.193	0.499
168.499	163.252	80.008	19.993	103.329	20.034	3.946	0.482
168.999	163.522	80.008	19.993	103.327	20.031	4.191	0.474
169.499	163.735	80.010	19.994	103.327	20.035	3.869	0.486
169.999	164.042	80.007	19.994	103.326	20.032	4.077	0.502
170.499	164.240	80.008	19.993	103.325	20.031	4.186	0.512
170.999	164.519	80.009	19.994	103.319	20.029	4.309	0.491
171.499	164.768	80.008	19.994	103.317	20.031	4.204	0.503
171.999	164.997	80.008	19.994	103.312	20.031	4.163	0.503
172.499	165.271	80.009	19.994	103.309	20.031	4.219	0.490
172.999	165.558	80.009	19.994	103.308	20.031	4.165	0.532
173.499	165.744	80.007	19.994	103.310	20.031	4.214	0.517
173.999	165.995	80.009	19.994	103.308	20.034	3.978	0.455
174.499	166.265	80.007	19.995	103.305	20.034	3.950	0.478
174.999	166.497	80.006	19.993	103.305	20.030	4.283	0.511
175.499	166.740	80.007	19.993	103.307	20.034	3.961	0.489
176.000	167.013	80.007	19.994	103.308	20.034	3.975	0.496
176.499	167.268	80.008	19.994	103.309	20.031	4.182	0.522
176.999	167.520	80.007	19.994	103.315	20.029	4.373	0.518
177.499	167.751	80.007	19.993	103.319	20.029	4.345	0.495
177.999	167.964	80.007	19.995	103.318	20.030	4.238	0.463
178.499	168.190	80.006	19.994	103.316	20.029	4.315	0.442
178.999	168.459	80.006	19.994	103.320	20.030	4.257	0.467
179.499	168.680	80.008	19.995	103.317	20.034	3.967	0.492
179.999	168.946	80.007	19.994	103.315	20.031	4.156	0.488
180.499	169.225	80.006	19.995	103.312	20.032	4.111	0.516
180.999	169.442	80.007	19.995	103.312	20.032	4.068	0.521
181.499	169.672	80.005	19.995	103.311	20.033	4.062	0.471
181.999	169.958	80.007	19.995	103.312	20.032	4.133	0.481
182.499	170.232	80.007	19.995	103.313	20.030	4.240	0.538
182.999	170.511	80.007	19.994	103.314	20.034	3.948	0.557
183.499	170.718	80.006	19.995	103.314	20.029	4.313	0.520
183.999	170.929	80.007	19.994	103.310	20.032	4.115	0.452
184.499	171.209	80.006	19.995	103.312	20.031	4.210	0.455
184.999	171.445	80.007	19.994	103.307	20.030	4.238	0.504
185.499	171.704	80.007	19.994	103.306	20.029	4.343	0.505
185.999	171.936	80.006	19.993	103.305	20.032	4.120	0.493
186.499	172.214	80.007	19.995	103.303	20.031	4.208	0.501
186.999	172.434	80.008	19.995	103.300	20.032	4.111	0.504
187.499	172.697	80.007	19.994	103.301	20.033	4.031	0.490
187.999	172.950	80.008	19.994	103.302	20.031	4.177	0.499
188.499	173.168	80.008	19.994	103.308	20.032	4.126	0.494
188.999	173.439	80.008	19.994	103.315	20.032	4.104	0.480
189.499	173.670	80.009	19.994	103.318	20.030	4.297	0.496
189.999	173.933	80.009	19.995	103.316	20.032	4.066	0.498
190.499	174.171	80.007	19.994	103.313	20.033	4.046	0.497
190.999	174.383	80.009	19.993	103.307	20.033	3.990	0.476
191.499	174.660	80.010	19.994	103.306	20.031	4.158	0.470
191.999	174.885	80.008	19.995	103.307	20.032	4.085	0.496
192.500	175.112	80.009	19.994	103.312	20.033	4.050	0.477
192.999	175.341	80.010	19.994	103.318	20.029	4.362	0.454
193.499	175.611	80.009	19.994	103.322	20.030	4.239	0.478
193.999	175.893	80.009	19.994	103.319	20.032	4.104	0.525
194.499	176.086	80.007	19.994	103.315	20.032	4.141	0.513
194.999	176.396	80.008	19.994	103.311	20.031	4.179	0.489
195.499	176.583	80.007	19.995	103.313	20.029	4.325	0.501
195.999	176.889	80.008	19.994	103.309	20.031	4.149	0.495
196.499	177.100	80.009	19.994	103.307	20.033	4.023	0.505
196.999	177.348	80.009	19.994	103.307	20.030	4.244	0.488
197.499	177.600	80.009	19.994	103.310	20.033	4.048	0.479
197.999	177.827	80.008	19.993	103.303	20.032	4.132	0.489
198.499	178.070	80.008	19.994	103.305	20.032	4.063	0.474
198.999	178.344	80.007	19.994	103.305	20.033	4.010	0.494
199.499	178.563	80.008	19.994	103.305	20.035	3.881	0.505
199.999	178.804	80.007	19.994	103.301	20.030	4.250	0.476
200.499	179.076	80.006	19.993	103.301	20.033	4.037	0.486
200.999	179.297	80.007	19.994	103.297	20.031	4.194	0.503
201.499	179.599	80.007	19.995	103.298	20.031	4.218	0.508
201.999	179.833	80.006	19.993	103.296	20.030	4.233	0.529
202.499	180.077	80.005	19.995	103.295	20.034	3.979	0.507
202.999	180.303	80.005	19.994	103.295	20.032	4.091	0.474
203.500	180.581	80.005	19.994	103.296	20.029	4.334	0.487
203.999	180.785	80.005	19.995	103.296	20.030	4.288	0.493
204.499	181.060	80.005	19.994	103.298	20.030	4.228	0.480
204.999	181.332	80.005	19.995	103.298	20.031	4.145	0.513
205.499	181.560	80.006	19.994	103.300	20.033	3.999	0.524
205.999	181.799	80.005	19.995	103.300	20.032	4.076	0.484
206.499	182.068	80.005	19.995	103.302	20.032	4.117	0.488
206.999	182.289	80.005	19.994	103.301	20.032	4.072	0.499
207.499	182.519	80.005	19.996	103.300	20.033	4.005	0.470
207.999	182.769	80.006	19.995	103.298	20.033	4.014	0.466
208.499	183.059	80.006	19.995	103.296	20.033	4.038	0.510
208.999	183.285	80.006	19.995	103.293	20.030	4.224	0.528
209.499	183.527	80.006	19.995	103.292	20.030	4.252	0.492
209.999	183.762	80.006	19.995	103.292	20.028	4.392	0.473
210.499	184.051	80.005	19.996	103.292	20.029	4.370	0.500
210.999	184.297	80.006	19.995	103.292	20.029	4.359	0.530
211.499	184.549	80.005	19.996	103.292	20.031	4.170	0.516
211.999	184.767	80.006	19.995	103.293	20.029	4.357	0.484
212.499	185.024	80.005	19.994	103.293	20.032	4.089	0.473
212.999	185.300	80.006	19.996	103.292	20.033	3.992	0.504
213.499	185.547	80.006	19.996	103.291	20.034	3.941	0.528
213.999	185.749	80.005	19.995	103.291	20.035	3.850	0.486
214.499	186.039	80.006	19.996	103.291	20.034	3.975	0.471
214.999	186.283	80.006	19.995	103.290	20.031	4.187	0.513
215.499	186.562	80.005	19.995	103.291	20.037	3.735	0.528
215.999	186.802	80.006	19.995	103.291	20.034	3.969	0.521
216.499	187.064	80.006	19.995	103.291	20.034	3.909	0.510
216.999	187.280	80.006	19.994	103.291	20.037	3.675	0.490
217.499	187.529	80.006	19.995	103.291	20.037	3.683	0.472
217.999	187.770	80.006	19.995	103.291	20.035	3.874	0.478
218.499	188.044	80.006	19.995	103.292	20.035	3.864	0.502
218.999	188.215	80.006	19.995	103.293	20.035	3.847	0.479
219.499	188.505	80.007	19.994	103.295	20.037	3.711	0.453
219.999	188.766	80.007	19.994	103.295	20.032	4.106	0.506
220.499	188.968	80.007	19.994	103.294	20.031	4.158	0.507
220.999	189.249	80.008	19.994	103.293	20.036	3.806	0.473
221.499	189.529	80.007	19.995	103.292	20.035	3.883	0.522
221.999	189.746	80.007	19.994	103.290	20.034	3.979	0.529
222.499	190.008	80.008	19.993	103.291	20.035	3.900	0.488
222.999	190.246	80.007	19.994	103.291	20.033	3.994	0.489
223.499	190.464	80.007	19.994	103.291	20.034	3.936	0.478
223.999	190.724	80.007	19.994	103.292	20.034	3.923	0.467
224.499	190.983	80.007	19.994	103.290	20.035	3.831	0.499
224.999	191.240	80.007	19.994	103.286	20.037	3.730	0.518
225.499	191.493	80.007	19.994	103.286	20.037	3.685	0.513
225.999	191.752	80.007	19.994	103.286	20.033	4.033	0.511
226.499	192.022	80.007	19.994	103.286	20.034	3.943	0.520
226.999	192.259	80.008	19.995	103.289	20.035	3.898	0.518
227.499	192.486	80.006	19.993	103.292	20.034	3.984	0.486
227.999	192.740	80.007	19.994	103.293	20.034	3.960	0.473
228.499	192.982	80.007	19.994	103.296	20.036	3.762	0.488
228.999	193.263	80.008	19.993	103.296	20.037	3.736	0.510
229.499	193.518	80.007	19.994	103.295	20.034	3.947	0.530
229.999	193.777	80.007	19.994	103.295	20.037	3.728	0.525
230.499	194.016	80.006	19.995	103.293	20.039	3.554	0.506
230.999	194.299	80.008	19.994	103.291	20.037	3.687	0.510
231.499	194.524	80.007	19.994	103.291	20.036	3.760	0.515
231.999	194.751	80.008	19.994	103.291	20.036	3.773	0.480
232.499	194.981	80.006	19.994	103.292	20.036	3.754	0.454
232.999	195.253	80.007	19.995	103.292	20.037	3.700	0.479
233.499	195.502	80.007	19.994	103.291	20.037	3.700	0.512
233.999	195.748	80.007	19.994	103.289	20.038	3.645	0.508
234.499	196.004	80.006	19.995	103.286	20.033	4.020	0.498
234.999	196.267	80.006	19.994	103.283	20.038	3.662	0.511
235.499	196.484	80.006	19.994	103.281	20.035	3.900	0.500
235.999	196.716	80.007	19.995	103.280	20.034	3.954	0.464
236.499	196.995	80.006	19.995	103.281	20.036	3.758	0.480
236.999	197.212	80.006	19.995	103.283	20.036	3.754	0.504
237.499	197.489	80.007	19.996	103.286	20.037	3.713	0.495
237.999	197.718	80.005	19.994	103.288	20.036	3.799	0.499
238.499	197.959	80.007	19.994	103.289	20.033	4.016	0.488
238.999	198.249	80.005	19.994	103.287	20.038	3.657	0.501
239.499	198.483	80.008	19.994	103.283	20.036	3.790	0.528
239.999	198.698	80.006	19.994	103.278	20.039	3.571	0.486
240.499	198.934	80.007	19.994	103.275	20.035	3.861	0.450
240.999	199.195	80.006	19.995	103.274	20.038	3.648	0.474
241.499	199.460	80.007	19.994	103.277	20.038	3.666	0.511
241.999	199.717	80.006	19.995	103.279	20.038	3.631	0.524
242.499	199.956	80.007	19.994	103.284	20.039	3.518	0.509
242.999	200.241	80.007	19.996	103.286	20.037	3.672	0.510
243.499	200.444	80.007	19.995	103.288	20.037	3.713	0.506
243.999	200.707	80.008	19.995	103.289	20.038	3.608	0.477
244.499	200.953	80.007	19.995	103.290	20.039	3.552	0.487
244.999	201.222	80.008	19.994	103.290	20.036	3.822	0.512
245.499	201.485	80.008	19.995	103.289	20.037	3.734	0.524
245.999	201.705	80.009	19.994	103.288	20.032	4.110	0.508
246.499	201.964	80.006	19.995	103.287	20.037	3.717	0.481
246.999	202.189	80.008	19.994	103.288	20.038	3.614	0.481
247.499	202.459	80.007	19.995	103.288	20.032	4.102	0.490
247.999	202.728	80.008	19.994	103.287	20.037	3.735	0.517
248.499	202.944	80.008	19.994	103.287	20.035	3.844	0.512
248.999	203.190	80.007	19.994	103.287	20.035	3.855	0.473
249.499	203.420	80.008	19.994	103.285	20.036	3.816	0.469
249.999	203.691	80.008	19.993	103.284	20.035	3.848	0.489
250.499	203.957	80.009	19.995	103.282	20.034	3.906	0.519
250.999	204.190	80.008	19.994	103.281	20.036	3.797	0.518
251.499	204.445	80.008	19.993	103.278	20.033	3.990	0.493
251.999	204.698	80.008	19.994	103.278	20.037	3.702	0.498
252.499	204.954	80.008	19.994	103.279	20.036	3.803	0.509
252.999	205.170	80.008	19.994	103.282	20.034	3.912	0.490
253.499	205.431	80.008	19.994	103.282	20.034	3.944	0.474
253.999	205.670	80.010	19.993	103.287	20.037	3.732	0.489
254.499	205.959	80.009	19.993	103.288	20.036	3.822	0.514
254.999	206.167	80.008	19.993	103.283	20.033	4.037	0.513
255.499	206.406	80.009	19.993	103.278	20.034	3.949	0.472
255.999	206.646	80.008	19.993	103.278	20.035	3.838	0.463
256.500	206.935	80.008	19.994	103.275	20.035	3.853	0.504
257.000	207.199	80.008	19.993	103.276	20.037	3.707	0.542
257.499	207.438	80.007	19.993	103.281	20.035	3.842	0.528
257.999	207.657	80.008	19.994	103.287	20.036	3.784	0.480
258.499	207.923	80.008	19.994	103.287	20.033	3.990	0.471
258.999	208.149	80.008	19.993	103.289	20.035	3.885	0.488
259.499	208.418	80.007	19.994	103.286	20.034	3.936	0.493
259.999	208.641	80.007	19.995	103.286	20.032	4.138	0.494
260.499	208.916	80.007	19.994	103.285	20.035	3.861	0.495
260.999	209.148	80.007	19.994	103.286	20.034	3.925	0.502
261.499	209.401	80.008	19.993	103.287	20.035	3.844	0.496
261.999	209.665	80.007	19.994	103.291	20.032	4.091	0.501
262.499	209.924	80.007	19.993	103.291	20.035	3.894	0.520
262.999	210.117	80.007	19.994	103.288	20.034	3.952	0.488
263.499	210.413	80.008	19.994	103.280	20.034	3.906	0.471
263.999	210.632	80.008	19.994	103.273	20.038	3.606	0.502
264.499	210.886	80.007	19.994	103.274	20.033	4.007	0.494
264.999	211.130	80.008	19.993	103.274	20.034	3.966	0.485
265.499	211.364	80.007	19.994	103.279	20.033	4.022	0.488
265.999	211.619	80.008	19.993	103.285	20.034	3.979	0.483
266.499	211.879	80.007	19.995	103.293	20.034	3.957	0.502
266.999	212.102	80.005	19.994	103.293	20.030	4.238	0.500
267.499	212.357	80.006	19.994	103.291	20.031	4.215	0.481
267.999	212.616	80.008	19.993	103.291	20.035	3.903	0.495
268.499	212.854	80.009	19.993	103.292	20.031	4.187	0.505
268.999	213.063	80.007	19.995	103.291	20.034	3.972	0.472
269.499	213.337	80.008	19.994	103.290	20.034	3.944	0.466
269.999	213.622	80.008	19.994	103.286	20.036	3.794	0.521
270.499	213.828	80.008	19.994	103.278	20.033	4.002	0.525
270.999	214.137	80.008	19.994	103.276	20.034	3.906	0.503
271.499	214.358	80.007	19.994	103.275	20.033	4.020	0.523
271.999	214.604	80.008	19.994	103.276	20.033	4.011	0.498
272.499	214.854	80.009	19.994	103.283	20.031	4.144	0.482
272.999	215.089	80.009	19.994	103.290	20.036	3.826	0.491
273.499	215.354	80.009	19.994	103.292	20.032	4.116	0.492
273.999	215.600	80.010	19.994	103.292	20.032	4.073	0.506
274.500	215.806	80.009	19.994	103.292	20.032	4.101	0.481
275.000	216.094	80.009	19.994	103.290	20.034	3.914	0.473
275.499	216.297	80.010	19.994	103.284	20.032	4.116	0.492
276.000	216.593	80.010	19.995	103.280	20.034	3.946	0.495
276.500	216.802	80.010	19.994	103.279	20.037	3.729	0.502
276.999	217.103	80.010	19.995	103.276	20.030	4.281	0.508
277.499	217.346	80.010	19.994	103.271	20.031	4.191	0.527
277.999	217.573	80.009	19.994	103.271	20.031	4.165	0.507
278.500	217.816	80.009	19.996	103.268	20.033	4.038	0.470
279.000	218.044	80.009	19.994	103.264	20.035	3.869	0.471
279.500	218.387	80.009	19.995	103.264	20.033	4.008	0.521
280.000	218.518	80.010	19.994	103.265	20.034	3.968	0.522
280.500	218.788	80.009	19.994	103.265	20.033	4.011	0.437
281.000	219.030	80.008	19.994	103.270	20.031	4.210	0.456
281.499	219.283	80.010	19.995	103.273	20.031	4.189	0.503
281.999	219.514	80.008	19.994	103.276	20.032	4.093	0.490
282.499	219.775	80.009	19.994	103.278	20.033	4.056	0.488
282.999	220.065	80.007	19.994	103.277	20.031	4.195	0.522
283.499	220.301	80.008	19.994	103.274	20.031	4.152	0.538
284.000	220.532	80.007	19.994	103.269	20.035	3.895	0.497
284.500	220.776	80.008	19.994	103.266	20.031	4.188	0.471
284.999	221.035	80.007	19.994	103.262	20.032	4.126	0.489
285.499	221.278	80.007	19.994	103.264	20.031	4.171	0.502
285.999	221.528	80.008	19.995	103.266	20.030	4.276	0.497
286.499	221.809	80.007	19.995	103.266	20.028	4.381	0.512
286.999	222.042	80.007	19.995	103.262	20.031	4.156	0.522
287.499	222.253	80.006	19.994	103.263	20.031	4.158	0.479
287.999	222.479	80.007	19.994	103.263	20.030	4.259	0.441
288.499	222.789	80.008	19.994	103.260	20.031	4.158	0.487
288.999	223.013	80.007	19.994	103.258	20.031	4.154	0.535
289.499	223.258	80.008	19.996	103.259	20.032	4.139	0.501
289.999	223.499	80.007	19.995	103.260	20.028	4.433	0.477
290.500	223.776	80.007	19.994	103.259	20.029	4.365	0.502
291.000	223.977	80.008	19.995	103.262	20.031	4.204	0.498
291.499	224.249	80.007	19.994	103.267	20.031	4.165	0.476
291.999	224.488	80.006	19.995	103.271	20.033	4.043	0.492
292.499	224.746	80.006	19.995	103.275	20.030	4.247	0.504
292.999	224.995	80.007	19.995	103.278	20.032	4.105	0.502
293.500	225.221	80.007	19.995	103.276	20.032	4.128	0.491
294.000	225.523	80.007	19.994	103.272	20.030	4.263	0.502
294.500	225.759	80.007	19.995	103.267	20.029	4.298	0.533
295.000	226.009	80.007	19.995	103.263	20.031	4.199	0.512
295.499	226.285	80.007	19.994	103.258	20.028	4.437	0.506
296.000	226.460	80.006	19.994	103.256	20.032	4.126	0.488
296.500	226.733	80.006	19.994	103.256	20.030	4.242	0.450
296.999	226.972	80.007	19.994	103.256	20.030	4.250	0.480
297.499	227.206	80.007	19.994	103.255	20.032	4.130	0.492
297.999	227.458	80.008	19.995	103.254	20.025	4.611	0.479
298.499	227.713	80.007	19.995	103.253	20.029	4.332	0.497
298.999	227.994	80.007	19.994	103.252	20.030	4.287	0.522
299.499	228.230	80.007	19.995	103.252	20.031	4.214	0.527
299.999	228.483	80.006	19.994	103.255	20.029	4.319	0.503
300.499	228.758	80.005	19.996	103.259	20.031	4.154	0.508
300.999	228.999	80.008	19.995	103.266	20.032	4.077	0.522
301.499	229.244	80.007	19.996	103.273	20.033	3.997	0.501
301.999	229.489	80.007	19.996	103.273	20.030	4.238	0.488
302.499	229.742	80.006	19.995	103.270	20.033	4.010	0.494
302.999	229.991	80.006	19.995	103.267	20.033	4.027	0.500
303.499	230.239	80.007	19.995	103.261	20.030	4.218	0.500
304.000	230.472	80.005	19.995	103.256	20.030	4.229	0.489
304.500	230.740	80.007	19.996	103.256	20.031	4.163	0.491
304.999	230.934	80.005	19.996	103.256	20.028	4.377	0.482
305.499	231.233	80.007	19.995	103.255	20.032	4.120	0.478
305.999	231.478	80.007	19.995	103.254	20.029	4.322	0.518
306.500	231.694	80.006	19.995	103.253	20.029	4.363	0.503
307.000	231.969	80.008	19.995	103.252	20.031	4.189	0.476
307.499	232.211	80.006	19.996	103.252	20.031	4.172	0.504
307.999	232.483	80.006	19.995	103.252	20.029	4.313	0.515
308.499	232.703	80.006	19.995	103.253	20.031	4.180	0.503
308.999	232.925	80.006	19.995	103.256	20.027	4.487	0.467
309.499	233.215	80.007	19.995	103.257	20.031	4.210	0.477
310.000	233.469	80.006	19.995	103.258	20.030	4.228	0.528
310.500	233.720	80.006	19.995	103.257	20.027	4.457	0.524
310.999	233.968	80.006	19.994	103.257	20.028	4.408	0.502
311.499	234.200	80.006	19.994	103.254	20.028	4.424	0.490
311.999	234.433	80.005	19.995	103.253	20.030	4.287	0.473
312.500	234.692	80.005	19.996	103.253	20.029	4.328	0.478
313.000	234.974	80.005	19.995	103.254	20.026	4.545	0.516
313.499	235.205	80.006	19.995	103.254	20.030	4.223	0.527
313.999	235.434	80.006	19.995	103.253	20.031	4.159	0.487
314.499	235.706	80.005	19.994	103.254	20.030	4.275	0.481
314.999	235.953	80.006	19.994	103.255	20.029	4.331	0.510
315.500	236.202	80.006	19.993	103.256	20.029	4.337	0.508
316.000	236.423	80.005	19.994	103.260	20.032	4.133	0.483
316.499	236.691	80.004	19.993	103.261	20.032	4.103	0.479
316.999	236.950	80.005	19.994	103.265	20.029	4.313	0.508
317.499	237.214	80.005	19.994	103.266	20.027	4.478	0.525
317.999	237.404	80.005	19.994	103.267	20.030	4.268	0.489
318.499	237.676	80.005	19.994	103.264	20.029	4.305	0.458
318.999	237.930	80.006	19.994	103.267	20.029	4.343	0.494
319.499	238.184	80.006	19.994	103.266	20.027	4.461	0.517
319.999	238.386	80.006	19.994	103.269	20.026	4.553	0.482
320.500	238.654	80.006	19.995	103.270	20.026	4.568	0.463
321.000	238.874	80.006	19.994	103.269	20.027	4.478	0.479
321.499	239.141	80.006	19.994	103.266	20.027	4.476	0.487
321.999	239.378	80.007	19.994	103.264	20.028	4.448	0.495
322.499	239.630	80.006	19.994	103.258	20.027	4.504	0.496
322.999	239.883	80.006	19.994	103.256	20.029	4.330	0.497
323.499	240.115	80.006	19.994	103.257	20.025	4.656	0.496
323.999	240.384	80.006	19.994	103.259	20.026	4.598	0.493
324.500	240.574	80.006	19.994	103.261	20.025	4.654	0.480
325.000	240.825	80.007	19.994	103.268	20.026	4.598	0.450
325.500	241.072	80.005	19.994	103.270	20.027	4.525	0.470
326.000	241.321	80.007	19.994	103.274	20.024	4.708	0.497
326.500	241.584	80.006	19.994	103.272	20.028	4.407	0.504
326.999	241.885	80.007	19.994	103.272	20.028	4.399	0.539
327.499	242.142	80.007	19.994	103.267	20.025	4.637	0.561
328.000	242.363	80.008	19.994	103.266	20.025	4.678	0.518
328.500	242.594	80.007	19.993	103.267	20.024	4.761	0.465
329.000	242.866	80.007	19.994	103.268	20.023	4.776	0.477
329.500	243.123	80.008	19.994	103.266	20.024	4.690	0.516
330.000	243.341	80.008	19.994	103.265	20.022	4.903	0.502
330.500	243.631	80.008	19.994	103.264	20.025	4.641	0.491
330.999	243.866	80.007	19.994	103.258	20.024	4.718	0.517
331.499	244.104	80.007	19.994	103.259	20.023	4.802	0.499
331.999	244.352	80.007	19.993	103.260	20.024	4.729	0.480
332.499	244.611	80.008	19.993	103.260	20.023	4.808	0.497
332.999	244.827	80.008	19.993	103.260	20.024	4.706	0.491
333.499	245.114	80.009	19.993	103.262	20.022	4.877	0.489
333.999	245.321	80.008	19.994	103.260	20.021	4.959	0.499
334.500	245.581	80.008	19.994	103.259	20.023	4.845	0.481
335.000	245.845	80.008	19.993	103.258	20.022	4.905	0.495
335.499	246.097	80.008	19.994	103.258	20.021	4.999	0.520
335.999	246.348	80.008	19.994	103.257	20.020	5.021	0.509
336.499	246.569	80.008	19.994	103.257	20.018	5.178	0.488
336.999	246.841	80.009	19.994	103.257	20.020	5.053	0.483
337.499	247.056	80.008	19.994	103.256	20.021	5.000	0.490
337.999	247.331	80.009	19.994	103.256	20.018	5.171	0.489
338.499	247.561	80.009	19.994	103.255	20.021	4.969	0.498
338.999	247.813	80.008	19.994	103.255	20.019	5.083	0.493
339.499	248.068	80.008	19.994	103.256	20.022	4.856	0.494
339.999	248.343	80.008	19.993	103.256	20.020	5.062	0.519
340.499	248.582	80.007	19.994	103.255	20.020	5.057	0.522
340.999	248.796	80.008	19.994	103.255	20.016	5.370	0.483
341.499	249.088	80.009	19.994	103.256	20.018	5.177	0.479
341.999	249.346	80.007	19.994	103.257	20.018	5.164	0.528
342.499	249.576	80.007	19.994	103.256	20.020	5.061	0.519
342.999	249.837	80.008	19.994	103.256	20.019	5.089	0.490
343.499	250.109	80.008	19.994	103.257	20.019	5.094	0.511
344.000	250.345	80.008	19.994	103.257	20.018	5.229	0.520
344.500	250.595	80.007	19.994	103.256	20.016	5.328	0.497
344.999	250.866	80.009	19.994	103.256	20.016	5.379	0.504
345.499	251.115	80.006	19.994	103.256	20.019	5.132	0.521
345.999	251.352	80.007	19.994	103.255	20.018	5.216	0.503
346.500	251.593	80.007	19.993	103.256	20.016	5.336	0.482
347.000	251.874	80.008	19.994	103.257	20.019	5.156	0.500
347.499	252.093	80.007	19.994	103.259	20.017	5.283	0.511
347.999	252.344	80.007	19.994	103.259	20.019	5.149	0.485
348.499	252.552	80.008	19.994	103.259	20.019	5.145	0.464
348.999	252.832	80.008	19.994	103.255	20.018	5.227	0.473
349.499	253.060	80.008	19.994	103.254	20.016	5.328	0.498
349.999	253.295	80.008	19.994	103.253	20.017	5.283	0.486
350.499	253.514	80.008	19.995	103.254	20.017	5.285	0.459
350.999	253.807	80.009	19.995	103.254	20.016	5.339	0.483
351.499	254.057	80.008	19.995	103.254	20.015	5.451	0.527
351.999	254.285	80.008	19.993	103.253	20.013	5.556	0.510
352.500	254.532	80.009	19.994	103.252	20.015	5.453	0.476
353.000	254.794	80.009	19.995	103.252	20.014	5.528	0.492
353.499	255.053	80.008	19.995	103.252	20.009	5.869	0.515
353.999	255.264	80.009	19.994	103.252	20.012	5.671	0.495
354.499	255.505	80.010	19.994	103.251	20.013	5.564	0.460
354.999	255.766	80.010	19.994	103.252	20.011	5.746	0.477
355.499	256.002	80.010	19.994	103.252	20.010	5.824	0.500
355.999	256.237	80.009	19.994	103.252	20.011	5.776	0.484
356.499	256.513	80.009	19.993	103.254	20.007	6.068	0.491
356.999	256.721	80.010	19.994	103.254	20.007	6.058	0.497
357.499	256.970	80.009	19.993	103.256	20.010	5.787	0.470
357.999	257.237	80.011	19.993	103.256	20.008	6.019	0.486
358.499	257.452	80.010	19.994	103.256	20.009	5.895	0.499
358.999	257.704	80.009	19.993	103.253	20.012	5.700	0.475
359.499	257.995	80.009	19.994	103.254	20.011	5.740	0.505
359.999	258.230	80.009	19.993	103.257	20.009	5.908	0.535
360.499	258.431	80.010	19.994	103.261	20.007	6.073	0.482
360.999	258.702	80.008	19.993	103.264	20.012	5.641	0.454
361.499	258.935	80.008	19.993	103.269	20.003	6.354	0.488
361.999	259.203	80.009	19.994	103.273	20.007	6.092	0.502
362.500	259.443	80.009	19.994	103.273	20.007	6.038	0.505
363.000	259.697	80.009	19.993	103.269	20.005	6.184	0.501
363.499	259.883	80.009	19.994	103.269	20.003	6.341	0.467
363.999	260.170	80.008	19.994	103.263	20.002	6.420	0.456
364.499	260.407	80.007	19.995	103.258	20.004	6.315	0.498
364.999	260.670	80.008	19.994	103.255	20.004	6.332	0.512
365.500	260.920	80.007	19.995	103.255	20.004	6.266	0.506
366.000	261.142	80.008	19.994	103.256	20.006	6.170	0.492
366.499	261.381	80.006	19.995	103.261	20.002	6.447	0.467
367.000	261.639	80.006	19.995	103.262	20.002	6.482	0.479
367.500	261.893	80.005	19.994	103.264	20.003	6.351	0.504
367.999	262.111	80.007	19.995	103.267	20.003	6.391	0.492
368.499	262.373	80.006	19.995	103.264	20.005	6.252	0.476
368.999	262.614	80.006	19.994	103.263	20.004	6.258	0.491
369.499	262.858	80.007	19.995	103.266	20.003	6.408	0.494
369.999	263.134	80.007	19.995	103.267	20.006	6.165	0.503
370.499	263.352	80.005	19.995	103.267	20.000	6.579	0.507
370.999	263.613	80.006	19.995	103.269	19.999	6.701	0.486
371.499	263.868	80.005	19.994	103.269	20.000	6.592	0.497
371.999	264.142	80.006	19.996	103.265	20.000	6.603	0.523
372.499	264.342	80.006	19.995	103.263	19.998	6.756	0.501
372.999	264.613	80.007	19.995	103.261	19.999	6.694	0.473
373.499	264.884	80.006	19.995	103.263	19.997	6.842	0.507
373.999	265.109	80.006	19.995	103.262	19.998	6.763	0.519
374.499	265.353	80.005	19.994	103.261	19.995	6.999	0.482
374.999	265.581	80.006	19.994	103.262	19.995	7.010	0.470
375.499	265.854	80.006	19.995	103.266	19.996	6.915	0.487
376.000	266.111	80.006	19.994	103.264	19.993	7.173	0.515
376.500	266.313	80.006	19.995	103.269	19.994	7.050	0.494
376.999	266.606	80.007	19.995	103.277	19.996	6.904	0.477
377.499	266.807	80.007	19.994	103.283	19.994	7.074	0.495
377.999	267.133	80.007	19.994	103.283	19.993	7.141	0.511
378.499	267.380	80.006	19.995	103.286	19.994	7.085	0.550
378.999	267.628	80.007	19.994	103.283	19.988	7.574	0.534
379.499	267.867	80.007	19.994	103.276	19.991	7.284	0.491
379.999	268.108	80.007	19.994	103.273	19.989	7.494	0.483
380.500	268.371	80.006	19.994	103.268	19.988	7.548	0.492
381.000	268.593	80.006	19.993	103.264	19.987	7.631	0.495
381.499	268.835	80.007	19.995	103.261	19.986	7.698	0.475
381.999	269.110	80.008	19.994	103.259	19.986	7.707	0.490
382.499	269.402	80.005	19.994	103.260	19.987	7.630	0.542
382.999	269.611	80.007	19.994	103.266	19.984	7.847	0.534
383.500	269.884	80.005	19.993	103.274	19.985	7.782	0.492
384.000	270.178	80.006	19.995	103.280	19.985	7.773	0.525
384.499	270.404	80.006	19.994	103.287	19.986	7.712	0.543
384.999	270.630	80.005	19.994	103.287	19.978	8.300	0.486
385.499	270.919	80.006	19.994	103.288	19.978	8.319	0.484
385.999	271.192	80.006	19.994	103.282	19.980	8.154	0.538
386.499	271.411	80.007	19.994	103.280	19.980	8.173	0.527
386.999	271.679	80.007	19.995	103.280	19.987	7.607	0.489
387.499	271.927	80.006	19.994	103.283	19.982	7.989	0.501
388.000	272.179	80.006	19.994	103.282	19.983	7.922	0.508
388.500	272.362	80.004	19.995	103.287	19.978	8.347	0.467
388.999	272.715	80.005	19.994	103.287	19.977	8.448	0.485
389.499	272.906	80.006	19.994	103.287	19.980	8.190	0.540
389.999	273.203	80.005	19.995	103.286	19.979	8.259	0.516
390.499	273.470	80.005	19.995	103.284	19.978	8.324	0.526
390.999	273.668	80.006	19.995	103.277	19.978	8.335	0.514
391.499	273.913	80.005	19.996	103.273	19.979	8.236	0.454
391.999	274.156	80.005	19.994	103.272	19.977	8.428	0.465
392.499	274.429	80.006	19.995	103.272	19.976	8.490	0.502
392.999	274.621	80.006	19.995	103.275	19.977	8.441	0.491
393.499	274.899	80.004	19.995	103.280	19.977	8.387	0.468
393.999	275.193	80.004	19.995	103.282	19.977	8.430	0.521
394.499	275.493	80.005	19.994	103.277	19.976	8.494	0.583
394.999	275.670	80.005	19.995	103.270	19.974	8.685	0.535
395.499	275.963	80.004	19.995	103.262	19.974	8.631	0.473
395.999	276.149	80.005	19.996	103.261	19.974	8.667	0.475
396.499	276.412	80.005	19.995	103.260	19.975	8.575	0.464
396.999	276.652	80.005	19.995	103.260	19.969	9.070	0.476
397.499	277.107	80.005	19.995	103.260	19.970	8.988	0.599
397.999	277.455	80.005	19.995	103.261	19.969	9.046	0.749
398.499	277.700	80.005	19.995	103.258	19.966	9.284	0.699
398.999	277.622	80.004	19.996	103.259	19.967	9.198	0.380
399.499	277.794	80.004	19.995	103.260	19.969	9.068	0.130
399.999	278.042	80.004	19.995	103.262	19.964	9.396	0.257
400.499	278.244	80.005	19.996	103.261	19.965	9.321	0.435
400.999	278.579	80.004	19.995	103.260	19.965	9.347	0.493
401.499	279.034	80.003	19.995	103.262	19.962	9.571	0.664
401.999	279.153	80.005	19.995	103.265	19.962	9.594	0.682
402.499	279.378	80.003	19.995	103.267	19.963	9.472	0.459
402.999	279.644	80.005	19.996	103.274	19.962	9.575	0.417
403.500	280.018	80.004	19.995	103.279	19.963	9.545	0.565
404.000	280.205	80.005	19.995	103.281	19.960	9.722	0.601
404.499	280.426	80.004	19.995	103.282	19.957	10.003	0.485
404.999	280.671	80.005	19.995	103.279	19.957	9.959	0.437
405.499	280.938	80.006	19.994	103.276	19.958	9.882	0.489
405.999	281.245	80.004	19.995	103.273	19.958	9.916	0.543
406.499	281.437	80.005	19.994	103.267	19.953	10.259	0.537
406.999	281.681	80.005	19.996	103.263	19.955	10.116	0.468
407.500	281.981	80.005	19.994	103.262	19.956	10.038	0.490
408.000	282.156	80.007	19.995	103.257	19.953	10.272	0.509
408.500	282.477	80.005	19.996	103.256	19.955	10.163	0.485
409.000	282.718	80.007	19.994	103.256	19.954	10.240	0.529
409.499	282.997	80.007	19.995	103.255	19.950	10.557	0.541
409.999	283.204	80.006	19.993	103.255	19.952	10.351	0.503
410.499	283.503	80.007	19.994	103.255	19.951	10.475	0.496
410.999	283.695	80.007	19.994	103.253	19.954	10.217	0.499
411.499	283.945	80.007	19.994	103.255	19.949	10.632	0.467
411.999	284.170	80.007	19.994	103.261	19.950	10.540	0.458
412.499	284.398	80.008	19.994	103.265	19.948	10.712	0.464
412.999	284.675	80.009	19.994	103.265	19.947	10.802	0.479
413.499	284.880	80.007	19.994	103.267	19.948	10.665	0.494
413.999	285.149	80.006	19.993	103.270	19.947	10.744	0.478
414.499	285.373	80.007	19.994	103.271	19.944	10.965	0.484
414.999	285.605	80.007	19.994	103.274	19.944	10.976	0.475
415.499	285.879	80.007	19.993	103.281	19.946	10.851	0.481
415.999	286.111	80.007	19.994	103.286	19.942	11.165	0.506
416.499	286.336	80.008	19.994	103.288	19.939	11.373	0.481
416.999	286.643	80.008	19.994	103.288	19.939	11.367	0.494
417.499	286.858	80.007	19.994	103.287	19.939	11.427	0.527
417.999	287.098	80.007	19.994	103.287	19.939	11.420	0.488
418.499	287.359	80.007	19.993	103.285	19.937	11.514	0.478
418.999	287.608	80.009	19.994	103.284	19.940	11.329	0.506
419.499	287.845	80.008	19.993	103.284	19.935	11.715	0.498
419.999	288.079	80.007	19.992	103.283	19.934	11.817	0.478
420.499	288.308	80.008	19.994	103.281	19.935	11.742	0.467
420.999	288.585	80.008	19.995	103.280	19.931	11.985	0.484
421.499	288.863	80.009	19.993	103.278	19.931	11.995	0.531
421.999	289.067	80.008	19.994	103.274	19.933	11.850	0.519
422.499	289.320	80.006	19.994	103.276	19.931	12.044	0.469
422.999	289.541	80.006	19.994	103.278	19.928	12.229	0.466
423.499	289.844	80.007	19.993	103.281	19.930	12.120	0.499
423.999	290.067	80.006	19.994	103.284	19.928	12.258	0.525
424.499	290.297	80.007	19.994	103.287	19.926	12.378	0.490
424.999	290.578	80.007	19.994	103.286	19.928	12.245	0.482
425.499	290.835	80.008	19.994	103.285	19.929	12.168	0.524
425.999	291.049	80.007	19.995	103.283	19.928	12.286	0.504
426.499	291.323	80.007	19.994	103.283	19.922	12.700	0.479
426.999	291.572	80.007	19.994	103.283	19.923	12.612	0.506
427.500	291.845	80.007	19.994	103.284	19.924	12.605	0.523
428.000	292.084	80.008	19.995	103.284	19.918	13.048	0.517
428.500	292.291	80.008	19.994	103.285	19.920	12.859	0.479
429.000	292.562	80.007	19.995	103.279	19.922	12.765	0.462
429.499	292.814	80.008	19.994	103.276	19.920	12.860	0.500
429.999	293.030	80.006	19.995	103.276	19.917	13.157	0.495
430.499	293.319	80.007	19.995	103.272	19.916	13.190	0.487
430.999	293.512	80.007	19.994	103.266	19.914	13.318	0.493
431.499	293.772	80.006	19.994	103.266	19.913	13.464	0.467
431.999	294.051	80.007	19.994	103.266	19.911	13.626	0.496
432.499	294.269	80.007	19.994	103.266	19.912	13.495	0.518
432.999	294.521	80.008	19.994	103.268	19.913	13.402	0.484
433.499	294.746	80.008	19.994	103.274	19.911	13.577	0.474
433.999	295.001	80.006	19.994	103.281	19.909	13.731	0.478
434.499	295.242	80.008	19.995	103.284	19.907	13.868	0.487
434.999	295.481	80.008	19.993	103.286	19.911	13.628	0.488
435.499	295.748	80.009	19.995	103.288	19.909	13.771	0.494
435.999	295.966	80.008	19.994	103.288	19.905	14.041	0.496
436.499	296.217	80.008	19.993	103.287	19.905	14.033	0.477
436.999	296.476	80.008	19.994	103.287	19.906	14.016	0.489
437.499	296.755	80.009	19.993	103.287	19.905	14.089	0.524
437.999	296.978	80.010	19.993	103.287	19.901	14.390	0.520
438.499	297.232	80.008	19.993	103.287	19.901	14.360	0.490
438.999	297.484	80.009	19.994	103.288	19.898	14.586	0.492
439.499	297.778	80.008	19.993	103.290	19.897	14.696	0.526
439.999	297.978	80.009	19.993	103.294	19.897	14.716	0.520
440.499	298.248	80.008	19.992	103.301	19.896	14.739	0.482
440.999	298.492	80.008	19.993	103.307	19.892	15.054	0.493
441.499	298.748	80.009	19.994	103.308	19.893	15.033	0.507
441.999	298.962	80.008	19.993	103.306	19.892	15.067	0.485
442.499	299.216	80.009	19.993	103.302	19.889	15.290	0.469
442.999	299.445	80.008	19.993	103.297	19.889	15.345	0.475
443.499	299.735	80.006	19.993	103.292	19.887	15.469	0.502
443.999	300.003	80.007	19.993	103.293	19.885	15.605	0.539
444.499	300.209	80.009	19.992	103.300	19.885	15.654	0.516
444.999	300.483	80.008	19.993	103.308	19.887	15.463	0.477
445.499	300.700	80.008	19.993	103.308	19.882	15.847	0.486
446.000	300.955	80.008	19.993	103.308	19.881	15.980	0.482
446.500	301.200	80.008	19.993	103.306	19.879	16.096	0.486
447.000	301.453	80.008	19.993	103.300	19.879	16.103	0.499
447.500	301.734	80.007	19.993	103.293	19.873	16.588	0.516
448.000	301.945	80.007	19.993	103.292	19.871	16.762	0.513
448.500	302.179	80.007	19.994	103.294	19.875	16.390	0.469
449.000	302.431	80.005	19.992	103.294	19.870	16.782	0.465
449.499	302.714	80.006	19.994	103.295	19.869	16.913	0.510
449.999	302.965	80.006	19.993	103.297	19.868	16.980	0.534
450.499	303.199	80.006	19.993	103.303	19.868	16.953	0.510
450.999	303.442	80.006	19.993	103.305	19.865	17.179	0.481
451.499	303.705	80.005	19.994	103.306	19.864	17.287	0.491
452.000	303.937	80.007	19.994	103.311	19.861	17.482	0.501
452.500	304.189	80.005	19.993	103.316	19.857	17.806	0.490
452.999	304.437	80.006	19.993	103.314	19.859	17.698	0.492
453.499	304.664	80.007	19.994	103.312	19.857	17.848	0.487
453.999	304.914	80.005	19.993	103.311	19.857	17.793	0.476
454.499	305.181	80.006	19.993	103.305	19.854	18.065	0.497
454.999	305.421	80.006	19.994	103.298	19.851	18.308	0.512
455.499	305.660	80.007	19.994	103.295	19.849	18.441	0.493
455.999	305.887	80.005	19.995	103.294	19.845	18.768	0.473
456.499	306.158	80.007	19.993	103.294	19.848	18.560	0.482
456.999	306.425	80.006	19.994	103.294	19.842	19.018	0.517
457.499	306.650	80.006	19.993	103.294	19.841	19.102	0.515
457.999	306.912	80.004	19.994	103.296	19.839	19.207	0.490
458.499	307.149	80.006	19.994	103.298	19.838	19.306	0.493
458.999	307.427	80.006	19.994	103.298	19.836	19.465	0.507
459.499	307.655	80.007	19.994	103.302	19.834	19.629	0.511
459.999	307.888	80.006	19.994	103.310	19.832	19.821	0.484
460.499	308.161	80.005	19.994	103.313	19.832	19.773	0.483
460.999	308.407	80.005	19.994	103.317	19.827	20.173	0.512
461.499	308.649	80.005	19.994	103.320	19.830	19.970	0.503
461.999	308.900	80.004	19.992	103.322	19.827	20.191	0.490
462.499	309.150	80.006	19.993	103.315	19.824	20.416	0.497
462.999	309.392	80.006	19.994	103.313	19.823	20.517	0.497
463.499	309.638	80.005	19.994	103.315	19.821	20.648	0.490
464.000	309.896	80.006	19.995	103.319	19.816	21.062	0.496
464.500	310.119	80.006	19.995	103.318	19.817	20.974	0.492
464.999	310.385	80.006	19.994	103.322	19.811	21.478	0.484
465.500	310.640	80.006	19.995	103.321	19.811	21.445	0.505
466.000	310.885	80.004	19.994	103.321	19.807	21.719	0.511
466.500	311.105	80.006	19.995	103.320	19.808	21.716	0.482
467.000	311.338	80.006	19.995	103.323	19.808	21.698	0.459
467.500	311.627	80.006	19.994	103.326	19.803	22.054	0.488
467.999	311.880	80.007	19.994	103.330	19.801	22.255	0.532
468.500	312.122	80.007	19.995	103.332	19.799	22.404	0.519
469.000	312.388	80.008	19.994	103.333	19.799	22.395	0.501
469.500	312.619	80.007	19.995	103.332	19.797	22.538	0.503
470.000	312.886	80.007	19.994	103.334	19.792	22.943	0.498
470.500	313.116	80.005	19.994	103.339	19.789	23.130	0.497
470.999	313.375	80.007	19.994	103.340	19.788	23.238	0.493
471.499	313.610	80.007	19.994	103.339	19.782	23.724	0.492
471.999	313.870	80.006	19.995	103.339	19.780	23.842	0.495
472.499	314.136	80.008	19.996	103.337	19.778	24.042	0.511
472.999	314.366	80.008	19.995	103.332	19.775	24.306	0.511
473.499	314.650	80.007	19.994	103.330	19.771	24.599	0.505
473.999	314.875	80.007	19.994	103.330	19.772	24.495	0.512
474.499	315.130	80.004	19.995	103.330	19.769	24.753	0.494
474.999	315.381	80.005	19.995	103.329	19.767	24.899	0.493
475.499	315.596	80.006	19.995	103.331	19.763	25.241	0.486
475.999	315.872	80.007	19.995	103.338	19.761	25.381	0.479
476.499	316.139	80.006	19.995	103.344	19.755	25.810	0.517
476.999	316.349	80.006	19.994	103.351	19.754	25.943	0.510
477.499	316.634	80.006	19.995	103.357	19.749	26.322	0.486
477.999	316.870	80.007	19.996	103.363	19.748	26.398	0.508
478.499	317.132	80.007	19.994	103.359	19.747	26.481	0.509
478.999	317.362	80.007	19.995	103.355	19.740	26.996	0.496
479.499	317.609	80.007	19.995	103.350	19.738	27.215	0.485
479.999	317.863	80.006	19.994	103.347	19.731	27.747	0.489
480.499	318.156	80.007	19.994	103.344	19.731	27.756	0.524
480.999	318.398	80.008	19.995	103.347	19.727	28.030	0.541
481.500	318.664	80.006	19.995	103.352	19.723	28.341	0.521
482.000	318.922	80.006	19.995	103.354	19.723	28.373	0.516
482.499	319.164	80.005	19.995	103.354	19.714	29.048	0.512
483.000	319.438	80.006	19.995	103.355	19.712	29.211	0.508
483.500	319.654	80.005	19.996	103.355	19.706	29.701	0.503
483.999	319.927	80.007	19.995	103.356	19.704	29.843	0.489
484.499	320.173	80.005	19.994	103.360	19.706	29.723	0.504
484.999	320.426	80.006	19.995	103.364	19.698	30.312	0.509
485.499	320.652	80.005	19.995	103.364	19.695	30.527	0.489
485.999	320.929	80.005	19.996	103.365	19.689	31.026	0.491
486.499	321.199	80.006	19.996	103.366	19.688	31.148	0.525
486.999	321.450	80.006	19.995	103.370	19.685	31.316	0.534
487.499	321.678	80.006	19.995	103.373	19.679	31.793	0.500
487.999	321.956	80.006	19.995	103.376	19.680	31.739	0.492
488.499	322.173	80.006	19.996	103.376	19.676	32.033	0.501
488.999	322.430	80.007	19.996	103.379	19.670	32.557	0.485
489.499	322.723	80.005	19.996	103.378	19.669	32.574	0.512
490.000	322.941	80.006	19.996	103.376	19.659	33.395	0.530
490.500	323.199	80.006	19.996	103.376	19.657	33.557	0.494
490.999	323.453	80.006	19.996	103.381	19.653	33.856	0.494
491.499	323.719	80.006	19.997	103.382	19.650	34.076	0.516
491.999	323.959	80.006	19.995	103.387	19.645	34.505	0.513
492.499	324.226	80.007	19.996	103.393	19.639	34.967	0.507
492.999	324.467	80.006	19.995	103.398	19.637	35.133	0.507
493.500	324.684	80.005	19.995	103.400	19.630	35.640	0.483
494.000	324.942	80.007	19.995	103.401	19.624	36.145	0.466
494.500	325.178	80.007	19.995	103.401	19.618	36.626	0.485
495.000	325.446	80.007	19.995	103.401	19.617	36.728	0.499
495.499	325.712	80.006	19.995	103.402	19.613	37.013	0.519
495.999	325.959	80.007	19.995	103.403	19.604	37.753	0.524
496.499	326.199	80.008	19.996	103.404	19.602	37.886	0.500
496.999	326.467	80.009	19.996	103.404	19.593	38.602	0.497
497.499	326.705	80.007	19.995	103.404	19.591	38.730	0.506
497.999	326.972	80.007	19.995	103.404	19.586	39.125	0.505
498.500	327.185	80.008	19.996	103.405	19.580	39.652	0.493
499.000	327.519	80.008	19.994	103.409	19.572	40.220	0.514
499.499	327.709	80.009	19.995	103.416	19.566	40.707	0.535
499.999	328.017	80.008	19.995	103.422	19.562	41.019	0.511
500.499	328.222	80.008	19.995	103.428	19.557	41.432	0.506
500.999	328.481	80.008	19.995	103.435	19.553	41.772	0.489
501.499	328.718	80.007	19.995	103.437	19.545	42.379	0.480
501.999	329.029	80.008	19.995	103.438	19.536	43.071	0.522
502.499	329.290	80.007	19.994	103.440	19.531	43.498	0.560
502.999	329.561	80.008	19.994	103.443	19.521	44.293	0.552
503.499	329.795	80.009	19.994	103.444	19.520	44.328	0.519
504.000	330.021	80.007	19.994	103.446	19.514	44.807	0.482
504.500	330.254	80.007	19.995	103.445	19.509	45.225	0.459
504.999	330.528	80.007	19.994	103.443	19.500	45.883	0.483
505.499	330.746	80.008	19.994	103.443	19.495	46.337	0.499
505.999	331.024	80.008	19.994	103.444	19.491	46.625	0.494
506.499	331.268	80.008	19.994	103.447	19.485	47.134	0.509
506.999	331.530	80.007	19.995	103.450	19.476	47.816	0.514
507.499	331.776	80.007	19.995	103.460	19.466	48.560	0.507
507.999	332.000	80.008	19.994	103.467	19.459	49.133	0.489
508.499	332.325	80.007	19.994	103.474	19.455	49.485	0.510
508.999	332.532	80.006	19.993	103.480	19.447	50.097	0.541
509.499	332.810	80.006	19.994	103.486	19.439	50.725	0.509
509.999	333.050	80.006	19.993	103.487	19.429	51.530	0.501
510.499	333.334	80.007	19.995	103.488	19.423	51.970	0.521
510.999	333.569	80.007	19.994	103.489	19.413	52.823	0.521
511.500	333.815	80.008	19.994	103.490	19.407	53.247	0.500
512.000	334.059	80.007	19.994	103.491	19.396	54.124	0.486
512.499	334.388	80.007	19.993	103.496	19.385	54.977	0.532
512.999	334.591	80.006	19.994	103.501	19.380	55.396	0.553
513.499	334.866	80.007	19.994	103.509	19.372	56.001	0.505
513.999	335.101	80.007	19.994	103.516	19.361	56.876	0.494
514.499	335.380	80.007	19.994	103.522	19.353	57.542	0.512
514.999	335.651	80.008	19.995	103.525	19.345	58.129	0.532
515.499	335.886	80.006	19.993	103.527	19.333	59.089	0.528
516.000	336.124	80.008	19.994	103.526	19.322	59.954	0.489
516.500	336.392	80.007	19.994	103.527	19.314	60.554	0.489
516.999	336.655	80.008	19.994	103.526	19.303	61.457	0.518
517.499	336.910	80.008	19.994	103.528	19.291	62.390	0.525
517.999	337.184	80.007	19.994	103.533	19.282	63.088	0.524
518.499	337.441	80.008	19.994	103.538	19.274	63.772	0.531
519.000	337.685	80.008	19.994	103.544	19.263	64.594	0.516
519.500	337.978	80.007	19.994	103.551	19.251	65.603	0.519
519.999	338.222	80.008	19.994	103.557	19.243	66.187	0.537
520.499	338.505	80.009	19.994	103.561	19.229	67.309	0.532
520.999	338.739	80.008	19.993	103.566	19.222	67.857	0.521
521.499	339.017	80.009	19.994	103.572	19.209	68.853	0.514
522.000	339.283	80.008	19.994	103.578	19.193	70.131	0.528
522.500	339.518	80.009	19.994	103.585	19.183	70.930	0.523
522.999	339.787	80.008	19.994	103.591	19.172	71.768	0.503
523.499	340.022	80.008	19.993	103.592	19.162	72.627	0.504
523.999	340.297	80.008	19.993	103.595	19.148	73.662	0.507
524.499	340.586	80.008	19.993	103.595	19.136	74.680	0.537
524.999	340.822	80.009	19.993	103.597	19.127	75.358	0.544
525.499	341.081	80.007	19.994	103.598	19.113	76.449	0.510
525.999	341.339	80.008	19.993	103.602	19.102	77.321	0.506
526.499	341.606	80.008	19.993	103.604	19.089	78.370	0.521
526.999	341.858	80.008	19.995	103.607	19.078	79.187	0.522
527.499	342.135	80.007	19.994	103.613	19.062	80.515	0.524
527.999	342.365	80.006	19.994	103.619	19.048	81.621	0.518
528.499	342.620	80.007	19.994	103.627	19.036	82.543	0.496
528.999	342.881	80.007	19.994	103.634	19.022	83.600	0.500
529.499	343.128	80.007	19.993	103.640	19.010	84.614	0.512
529.999	343.369	80.006	19.994	103.642	18.995	85.777	0.498
530.499	343.646	80.006	19.994	103.644	18.980	86.936	0.503
530.999	343.900	80.006	19.994	103.645	18.971	87.651	0.524
531.499	344.154	80.006	19.994	103.648	18.954	88.986	0.519
531.999	344.385	80.006	19.994	103.656	18.948	89.467	0.496
532.499	344.660	80.007	19.994	103.664	18.930	90.857	0.496
532.999	344.925	80.005	19.994	103.668	18.919	91.760	0.523
533.499	345.143	80.006	19.994	103.674	18.903	92.999	0.511
534.000	345.426	80.006	19.994	103.680	18.890	94.064	0.492
534.500	345.690	80.007	19.994	103.680	18.877	95.022	0.524
534.999	345.946	80.007	19.994	103.681	18.864	96.085	0.533
535.499	346.202	80.006	19.994	103.690	18.853	96.948	0.516
535.999	346.446	80.007	19.994	103.695	18.837	98.189	0.506
536.500	346.726	80.006	19.995	103.699	18.824	99.174	0.512
537.000	346.967	80.007	19.994	103.704	18.812	100.149	0.522
537.499	347.217	80.006	19.995	103.706	18.795	101.486	0.506
537.999	347.470	80.007	19.993	103.701	18.784	102.372	0.497
538.499	347.731	80.006	19.994	103.702	18.771	103.385	0.509
538.999	348.014	80.006	19.994	103.705	18.763	103.966	0.529
539.499	348.234	80.008	19.994	103.703	18.750	105.027	0.524
539.999	348.499	80.006	19.994	103.706	18.737	106.018	0.494
540.499	348.766	80.006	19.994	103.712	18.727	106.792	0.508
540.999	349.015	80.007	19.994	103.715	18.716	107.642	0.524
541.499	349.279	80.007	19.994	103.714	18.708	108.295	0.515
541.999	349.524	80.007	19.994	103.719	18.693	109.426	0.511
542.499	349.755	80.007	19.994	103.720	18.685	110.065	0.493
542.999	350.021	80.008	19.993	103.720	18.672	111.060	0.487
543.499	350.277	80.006	19.994	103.720	18.668	111.416	0.509
543.999	350.529	80.007	19.994	103.720	18.659	112.140	0.515
544.499	350.795	80.007	19.994	103.716	18.648	112.949	0.513
545.000	351.043	80.007	19.993	103.713	18.641	113.499	0.516
545.500	351.276	80.007	19.994	103.711	18.636	113.898	0.497
546.000	351.571	80.007	19.995	103.707	18.630	114.385	0.504
546.500	351.818	80.007	19.994	103.701	18.623	114.930	0.535
546.999	352.124	80.007	19.995	103.696	18.617	115.350	0.547
547.499	352.329	80.007	19.995	103.692	18.615	115.542	0.532
547.999	352.628	80.008	19.994	103.686	18.604	116.379	0.508
548.499	352.847	80.008	19.994	103.681	18.603	116.425	0.511
548.999	353.099	80.007	19.995	103.677	18.599	116.751	0.494
549.499	353.370	80.007	19.994	103.674	18.596	117.024	0.497
549.999	353.615	80.008	19.995	103.668	18.596	116.964	0.520
550.499	353.881	80.006	19.995	103.661	18.595	117.070	0.513
550.999	354.134	80.008	19.995	103.653	18.596	116.943	0.514
551.499	354.372	80.007	19.994	103.649	18.596	116.938	0.505
551.999	354.627	80.007	19.994	103.645	18.595	117.049	0.492
552.499	354.879	80.008	19.994	103.639	18.599	116.712	0.501
552.999	355.090	80.008	19.994	103.633	18.601	116.494	0.485
553.499	355.375	80.007	19.995	103.626	18.605	116.158	0.479
553.999	355.641	80.008	19.995	103.621	18.609	115.903	0.523
554.499	355.866	80.007	19.995	103.612	18.608	115.919	0.521
554.999	356.151	80.007	19.995	103.608	18.613	115.544	0.501
555.499	356.347	80.006	19.995	103.605	18.620	114.959	0.495
555.999	356.581	80.006	19.994	103.604	18.630	114.190	0.455
556.499	356.868	80.007	19.995	103.601	18.634	113.863	0.476
557.000	357.136	80.006	19.994	103.597	18.642	113.233	0.538
557.500	357.395	80.006	19.995	103.590	18.651	112.520	0.541
557.999	357.604	80.007	19.996	103.582	18.662	111.686	0.498
558.499	357.874	80.008	19.995	103.575	18.671	110.912	0.474
558.999	358.127	80.006	19.996	103.567	18.682	110.084	0.501
559.499	358.390	80.007	19.994	103.562	18.689	109.481	0.519
559.999	358.629	80.006	19.995	103.556	18.706	108.189	0.509
560.499	358.912	80.006	19.995	103.548	18.714	107.519	0.512
560.999	359.135	80.005	19.994	103.540	18.724	106.776	0.514
561.499	359.389	80.006	19.995	103.531	18.735	105.870	0.491
561.999	359.641	80.005	19.995	103.520	18.751	104.633	0.491
562.499	359.887	80.006	19.994	103.511	18.763	103.704	0.502
562.999	360.157	80.006	19.995	103.501	18.780	102.321	0.507
563.499	360.360	80.007	19.995	103.490	18.791	101.510	0.495
563.999	360.605	80.006	19.995	103.476	18.811	99.892	0.461
564.499	360.906	80.006	19.995	103.466	18.829	98.458	0.497
564.999	361.151	80.006	19.995	103.459	18.842	97.457	0.546
565.499	361.380	80.006	19.995	103.456	18.859	96.081	0.510
565.999	361.631	80.005	19.994	103.452	18.875	94.892	0.477
566.500	361.882	80.007	19.995	103.451	18.892	93.558	0.491
567.000	362.146	80.006	19.995	103.448	18.908	92.253	0.509
567.499	362.415	80.005	19.995	103.438	18.930	90.517	0.524
567.999	362.636	80.007	19.995	103.428	18.947	89.199	0.511
568.499	362.903	80.006	19.994	103.418	18.962	88.005	0.489
568.999	363.137	80.005	19.994	103.410	18.983	86.417	0.494
569.499	363.400	80.007	19.995	103.404	18.999	85.156	0.499
569.999	363.605	80.007	19.995	103.398	19.018	83.668	0.482
570.499	363.849	80.007	19.994	103.392	19.037	82.151	0.458
570.999	364.094	80.006	19.994	103.387	19.058	80.499	0.469
571.499	364.374	80.007	19.994	103.379	19.077	78.974	0.507
571.999	364.652	80.007	19.996	103.373	19.097	77.412	0.541
572.499	364.892	80.007	19.994	103.371	19.112	76.245	0.538
572.999	365.087	80.007	19.995	103.370	19.131	74.771	0.477
573.499	365.357	80.007	19.994	103.369	19.152	73.161	0.450
573.999	365.600	80.007	19.993	103.364	19.173	71.510	0.489
574.499	365.839	80.007	19.994	103.359	19.188	70.329	0.497
575.000	366.101	80.008	19.995	103.351	19.210	68.592	0.491
575.500	366.305	80.008	19.995	103.345	19.227	67.204	0.484
575.999	366.587	80.008	19.995	103.339	19.242	66.068	0.476
576.499	366.807	80.007	19.995	103.336	19.261	64.554	0.494
576.999	367.059	80.007	19.995	103.334	19.279	63.117	0.487
577.499	367.330	80.008	19.994	103.334	19.296	61.792	0.498
577.999	367.576	80.008	19.995	103.332	19.313	60.501	0.520
578.499	367.807	80.008	19.994	103.332	19.324	59.580	0.497
578.999	368.090	80.007	19.994	103.332	19.345	57.967	0.495
579.499	368.281	80.007	19.994	103.331	19.360	56.831	0.494
579.999	368.545	80.007	19.993	103.330	19.379	55.343	0.465
580.499	368.807	80.006	19.994	103.324	19.394	54.136	0.491
580.999	369.082	80.008	19.996	103.322	19.409	52.931	0.532
581.499	369.306	80.007	19.995	103.317	19.425	51.684	0.518
581.999	369.547	80.007	19.996	103.313	19.440	50.507	0.482
582.499	369.797	80.007	19.994	103.310	19.449	49.838	0.478
582.999	370.038	80.005	19.995	103.314	19.465	48.589	0.491
583.499	370.296	80.007	19.994	103.314	19.479	47.486	0.495
583.999	370.556	80.006	19.996	103.319	19.489	46.701	0.509
584.499	370.781	80.007	19.996	103.320	19.501	45.710	0.501
585.000	371.043	80.006	19.995	103.320	19.511	44.944	0.486
585.500	371.270	80.006	19.995	103.316	19.520	44.290	0.488
586.000	371.497	80.008	19.995	103.309	19.533	43.254	0.472
586.500	371.742	80.006	19.995	103.302	19.541	42.611	0.463
587.000	372.006	80.007	19.994	103.297	19.550	41.929	0.490
587.499	372.234	80.005	19.995	103.292	19.560	41.121	0.500
587.999	372.460	80.007	19.996	103.290	19.571	40.291	0.473
588.499	372.756	80.005	19.995	103.290	19.582	39.351	0.488
588.999	372.994	80.006	19.995	103.292	19.589	38.871	0.528
589.499	373.270	80.006	19.995	103.292	19.595	38.369	0.524
589.999	373.487	80.006	19.995	103.292	19.607	37.468	0.504
590.499	373.739	80.005	19.995	103.293	19.612	36.998	0.481
590.999	373.988	80.006	19.995	103.294	19.623	36.197	0.485
591.499	374.226	80.007	19.996	103.298	19.627	35.860	0.494
591.999	374.509	80.007	19.995	103.301	19.638	34.970	0.504
592.499	374.752	80.006	19.994	103.302	19.640	34.847	0.524
593.000	374.933	80.008	19.995	103.304	19.645	34.435	0.475
593.500	375.216	80.006	19.994	103.305	19.651	33.977	0.444
593.999	375.469	80.007	19.995	103.302	19.659	33.386	0.500
594.500	375.711	80.007	19.995	103.303	19.664	32.969	0.515
595.000	375.997	80.006	19.995	103.303	19.664	32.926	0.512
595.499	376.242	80.007	19.995	103.307	19.672	32.346	0.530
595.999	376.451	80.007	19.995	103.306	19.676	32.044	0.493
596.499	376.715	80.008	19.994	103.308	19.683	31.456	0.463
596.999	376.965	80.008	19.994	103.310	19.684	31.425	0.493
597.499	377.194	80.008	19.994	103.309	19.689	31.002	0.497
598.000	377.442	80.008	19.994	103.303	19.692	30.787	0.478
598.500	377.710	80.007	19.994	103.301	19.695	30.541	0.496
598.999	377.944	80.009	19.994	103.298	19.702	30.006	0.509
599.499	378.182	80.008	19.994	103.295	19.706	29.699	0.487
600.000	378.434	80.009	19.993	103.296	19.707	29.586	0.481
600.500	378.703	80.009	19.995	103.297	19.707	29.554	0.506
600.999	378.932	80.010	19.994	103.299	19.708	29.524	0.510
601.499	379.171	80.010	19.995	103.299	19.714	29.065	0.483
601.999	379.410	80.009	19.994	103.297	19.714	29.058	0.473
602.499	379.645	80.010	19.994	103.298	19.718	28.688	0.476
602.999	379.890	80.008	19.994	103.298	19.715	28.924	0.477
603.499	380.166	80.008	19.994	103.297	19.723	28.367	0.500
603.999	380.389	80.010	19.994	103.299	19.723	28.333	0.510
604.499	380.666	80.009	19.994	103.301	19.722	28.402	0.500
604.999	380.871	80.010	19.994	103.299	19.724	28.223	0.491
605.499	381.145	80.010	19.993	103.298	19.727	28.013	0.480
605.999	381.396	80.009	19.994	103.298	19.725	28.143	0.502
606.499	381.647	80.010	19.995	103.296	19.729	27.853	0.514
606.999	381.879	80.009	19.994	103.293	19.727	28.008	0.492
607.499	382.139	80.010	19.994	103.294	19.731	27.742	0.487
608.000	382.371	80.010	19.994	103.296	19.727	27.980	0.492
608.500	382.614	80.009	19.994	103.295	19.732	27.663	0.484
608.999	382.872	80.009	19.994	103.295	19.734	27.496	0.488
609.499	383.123	80.008	19.993	103.296	19.732	27.651	0.505
609.999	383.363	80.009	19.995	103.295	19.733	27.545	0.500
610.499	383.630	80.009	19.994	103.296	19.732	27.615	0.499
610.999	383.875	80.009	19.995	103.299	19.729	27.882	0.509
611.499	384.136	80.006	19.994	103.299	19.730	27.752	0.509
611.999	384.357	80.008	19.994	103.300	19.733	27.527	0.494
612.499	384.614	80.008	19.994	103.301	19.731	27.721	0.480
613.000	384.872	80.006	19.995	103.298	19.733	27.550	0.497
613.500	385.140	80.007	19.994	103.295	19.733	27.584	0.520
613.999	385.389	80.008	19.996	103.294	19.731	27.738	0.521
614.499	385.610	80.006	19.994	103.292	19.731	27.682	0.493
614.999	385.883	80.006	19.994	103.292	19.732	27.597	0.482
615.499	386.117	80.007	19.994	103.293	19.731	27.734	0.501
616.000	386.370	80.007	19.995	103.292	19.730	27.778	0.497
616.500	386.663	80.006	19.994	103.293	19.731	27.672	0.516
616.999	386.881	80.006	19.993	103.296	19.726	28.109	0.528
617.499	387.149	80.008	19.994	103.296	19.729	27.904	0.498
617.999	387.381	80.006	19.994	103.298	19.727	27.995	0.493
618.499	387.644	80.007	19.995	103.298	19.729	27.898	0.498
618.999	387.899	80.007	19.994	103.297	19.729	27.844	0.507
619.500	388.165	80.007	19.995	103.293	19.727	27.998	0.519
620.000	388.384	80.006	19.995	103.293	19.725	28.167	0.503
620.500	388.633	80.007	19.995	103.294	19.727	28.016	0.477
621.000	388.912	80.007	19.994	103.299	19.727	28.031	0.498
621.499	389.156	80.009	19.994	103.304	19.723	28.307	0.525
621.999	389.415	80.006	19.993	103.307	19.728	27.937	0.513
622.500	389.674	80.007	19.995	103.312	19.725	28.157	0.511
623.000	389.914	80.007	19.995	103.312	19.724	28.225	0.509
623.499	390.149	80.008	19.995	103.308	19.722	28.436	0.487
623.999	390.422	80.008	19.995	103.303	19.721	28.505	0.492
624.499	390.682	80.006	19.994	103.301	19.722	28.403	0.520
624.999	390.915	80.007	19.994	103.298	19.717	28.847	0.513
625.499	391.186	80.010	19.994	103.299	19.717	28.788	0.498
625.999	391.473	80.007	19.995	103.300	19.719	28.640	0.531
626.499	391.696	80.008	19.996	103.300	19.721	28.531	0.535
626.999	391.972	80.007	19.995	103.303	19.716	28.923	0.505
627.499	392.169	80.008	19.994	103.308	19.711	29.246	0.486
627.999	392.428	80.006	19.994	103.312	19.712	29.220	0.464
628.499	392.715	80.008	19.994	103.316	19.710	29.356	0.501
628.999	392.955	80.007	19.994	103.321	19.712	29.164	0.537
629.499	393.260	80.006	19.993	103.321	19.710	29.343	0.536
629.999	393.449	80.008	19.995	103.317	19.708	29.492	0.519
630.500	393.721	80.009	19.994	103.315	19.710	29.331	0.477
631.000	393.983	80.007	19.994	103.313	19.706	29.644	0.497
631.500	394.255	80.008	19.994	103.311	19.705	29.788	0.534
632.000	394.490	80.009	19.994	103.312	19.703	29.949	0.521
632.499	394.769	80.007	19.994	103.315	19.702	29.984	0.511
632.999	395.036	80.008	19.994	103.313	19.698	30.332	0.530
633.499	395.244	80.008	19.995	103.317	19.702	29.961	0.511
633.999	395.520	80.008	19.995	103.320	19.698	30.310	0.480
634.499	395.786	80.007	19.992	103.324	19.700	30.145	0.513
634.999	396.031	80.008	19.995	103.325	19.698	30.331	0.527
635.499	396.300	80.009	19.994	103.329	19.692	30.770	0.513
635.999	396.521	80.007	19.993	103.326	19.691	30.839	0.502
636.499	396.791	80.008	19.994	103.324	19.689	30.973	0.490
636.999	397.062	80.006	19.993	103.324	19.689	31.037	0.516
637.499	397.289	80.007	19.994	103.324	19.687	31.128	0.520
637.999	397.575	80.008	19.994	103.321	19.688	31.079	0.506
638.499	397.803	80.007	19.994	103.319	19.687	31.165	0.513
638.999	398.027	80.007	19.994	103.316	19.683	31.498	0.483
639.500	398.331	80.006	19.994	103.312	19.684	31.434	0.490
640.000	398.588	80.007	19.995	103.310	19.686	31.247	0.544
640.499	398.850	80.006	19.993	103.313	19.679	31.786	0.540
640.999	399.078	80.006	19.994	103.316	19.676	32.019	0.504
641.499	399.324	80.007	19.994	103.323	19.676	32.034	0.482
641.999	399.587	80.006	19.995	103.327	19.675	32.074	0.491
642.499	399.844	80.007	19.994	103.329	19.671	32.409	0.515
642.999	400.089	80.007	19.994	103.330	19.670	32.484	0.511
643.499	400.348	80.006	19.994	103.332	19.674	32.188	0.503
643.999	400.583	80.006	19.994	103.332	19.670	32.491	0.499
644.500	400.839	80.006	19.995	103.332	19.668	32.694	0.493
645.000	401.084	80.005	19.995	103.329	19.667	32.747	0.496
645.499	401.336	80.006	19.995	103.329	19.664	32.996	0.499
645.999	401.582	80.007	19.994	103.327	19.663	33.082	0.497
646.499	401.829	80.005	19.995	103.324	19.659	33.364	0.495
646.999	402.114	80.006	19.995	103.325	19.655	33.643	0.513
647.499	402.333	80.008	19.995	103.327	19.656	33.606	0.518
647.999	402.612	80.006	19.996	103.327	19.653	33.797	0.501
648.499	402.863	80.006	19.994	103.329	19.650	34.051	0.514
648.999	403.106	80.006	19.996	103.332	19.652	33.931	0.512
649.499	403.382	80.005	19.995	103.333	19.646	34.390	0.507
649.999	403.622	80.005	19.995	103.333	19.647	34.307	0.518
650.499	403.841	80.006	19.995	103.333	19.643	34.645	0.488
650.999	404.122	80.007	19.995	103.334	19.642	34.690	0.480
651.499	404.343	80.006	19.995	103.334	19.640	34.887	0.500
651.999	404.592	80.006	19.995	103.335	19.640	34.823	0.485
652.499	404.873	80.007	19.995	103.334	19.634	35.292	0.500
652.999	405.067	80.006	19.995	103.333	19.633	35.408	0.503
653.499	405.338	80.008	19.996	103.333	19.632	35.479	0.470
653.999	405.589	80.005	19.995	103.333	19.630	35.611	0.493
654.499	405.833	80.006	19.994	103.333	19.631	35.584	0.509
654.999	406.084	80.007	19.994	103.336	19.628	35.832	0.495
655.499	406.355	80.007	19.994	103.339	19.627	35.907	0.509
655.999	406.570	80.006	19.994	103.342	19.619	36.487	0.504
656.500	406.820	80.008	19.994	103.342	19.620	36.398	0.475
657.000	407.083	80.008	19.994	103.342	19.620	36.410	0.489
657.499	407.360	80.007	19.995	103.340	19.618	36.567	0.527
657.999	407.553	80.008	19.994	103.339	19.616	36.756	0.505
658.499	407.821	80.009	19.994	103.337	19.613	36.969	0.465
658.999	408.086	80.008	19.994	103.337	19.610	37.210	0.497
659.499	408.324	80.007	19.995	103.337	19.610	37.237	0.518
659.999	408.566	80.008	19.993	103.340	19.605	37.644	0.492
660.499	408.821	80.007	19.995	103.343	19.605	37.601	0.489
661.000	409.036	80.008	19.994	103.345	19.603	37.800	0.483
661.500	409.339	80.008	19.995	103.347	19.599	38.118	0.494
661.999	409.556	80.008	19.995	103.347	19.599	38.099	0.519
662.499	409.810	80.007	19.994	103.346	19.597	38.270	0.495
662.999	410.047	80.009	19.994	103.347	19.598	38.149	0.481
663.499	410.326	80.008	19.994	103.351	19.592	38.620	0.503
663.999	410.577	80.007	19.995	103.355	19.589	38.856	0.523
664.499	410.836	80.008	19.994	103.362	19.587	39.028	0.520
664.999	411.060	80.008	19.994	103.366	19.590	38.785	0.497
665.499	411.330	80.007	19.995	103.363	19.588	38.938	0.489
665.999	411.596	80.008	19.995	103.360	19.589	38.901	0.515
666.499	411.844	80.009	19.995	103.353	19.588	38.929	0.525
666.999	412.044	80.007	19.994	103.346	19.584	39.277	0.481
667.499	412.319	80.008	19.994	103.344	19.580	39.543	0.461
667.999	412.514	80.007	19.994	103.348	19.580	39.600	0.472
668.499	412.804	80.008	19.994	103.348	19.577	39.828	0.477
668.999	413.037	80.008	19.995	103.355	19.577	39.826	0.504
669.499	413.295	80.008	19.996	103.360	19.575	39.948	0.507
669.999	413.526	80.007	19.994	103.364	19.574	40.071	0.490
670.499	413.779	80.006	19.995	103.365	19.570	40.391	0.486
670.999	414.025	80.008	19.995	103.368	19.572	40.229	0.491
671.499	414.227	80.007	19.995	103.368	19.571	40.267	0.474
672.000	414.506	80.006	19.995	103.367	19.573	40.090	0.465
672.500	414.761	80.007	19.995	103.367	19.569	40.420	0.507
673.000	414.994	80.006	19.994	103.367	19.569	40.446	0.511
673.500	415.229	80.006	19.995	103.366	19.567	40.588	0.478
673.999	415.472	80.006	19.995	103.364	19.567	40.583	0.473
674.499	415.725	80.006	19.996	103.365	19.567	40.597	0.487
674.999	415.990	80.009	19.995	103.365	19.567	40.610	0.507
675.499	416.228	80.007	19.996	103.365	19.562	40.978	0.511
675.999	416.451	80.007	19.995	103.365	19.560	41.131	0.482
676.499	416.725	80.008	19.996	103.365	19.562	40.962	0.479
676.999	416.992	80.008	19.996	103.364	19.558	41.268	0.519
677.499	417.255	80.006	19.995	103.357	19.561	41.096	0.535
677.999	417.499	80.008	19.995	103.353	19.558	41.289	0.519
678.499	417.763	80.007	19.995	103.348	19.563	40.910	0.507
678.999	418.025	80.008	19.996	103.343	19.561	41.062	0.516
679.499	418.318	80.008	19.995	103.341	19.563	40.895	0.540
679.999	418.494	80.010	19.995	103.347	19.561	41.074	0.512
680.499	418.741	80.008	19.996	103.351	19.565	40.763	0.446
680.999	418.989	80.008	19.997	103.357	19.562	40.970	0.459
681.499	419.268	80.009	19.996	103.361	19.563	40.868	0.511
681.999	419.497	80.009	19.996	103.361	19.561	41.066	0.518
682.499	419.764	80.008	19.995	103.360	19.563	40.872	0.502
683.000	420.002	80.009	19.995	103.356	19.566	40.648	0.500
683.500	420.282	80.008	19.996	103.349	19.567	40.620	0.511
683.999	420.560	80.009	19.996	103.344	19.564	40.819	0.538
684.499	420.787	80.009	19.995	103.344	19.564	40.804	0.531
684.999	421.045	80.009	19.994	103.342	19.563	40.920	0.495
685.499	421.277	80.008	19.995	103.345	19.567	40.621	0.488
685.999	421.557	80.011	19.996	103.352	19.569	40.394	0.501
686.499	421.834	80.008	19.995	103.359	19.568	40.466	0.535
686.999	422.071	80.008	19.995	103.360	19.569	40.400	0.535
687.499	422.305	80.009	19.995	103.361	19.571	40.264	0.492
688.000	422.583	80.009	19.993	103.358	19.576	39.868	0.492
688.500	422.830	80.009	19.994	103.354	19.574	40.026	0.518
689.000	423.082	80.009	19.994	103.353	19.577	39.838	0.512
689.499	423.330	80.009	19.994	103.356	19.577	39.763	0.500
689.999	423.586	80.009	19.994	103.358	19.583	39.318	0.502
690.499	423.794	80.009	19.994	103.361	19.581	39.489	0.484
690.999	424.089	80.008	19.994	103.362	19.586	39.094	0.484
691.499	424.339	80.008	19.994	103.359	19.585	39.186	0.524
691.999	424.595	80.007	19.994	103.354	19.588	38.925	0.525
692.499	424.840	80.007	19.994	103.353	19.592	38.638	0.504
692.999	425.120	80.008	19.995	103.352	19.593	38.573	0.513
693.499	425.365	80.008	19.994	103.351	19.597	38.252	0.525
693.999	425.640	80.008	19.994	103.349	19.598	38.133	0.522
694.499	425.860	80.008	19.995	103.350	19.602	37.836	0.507
695.000	426.144	80.007	19.994	103.352	19.609	37.306	0.500
695.500	426.401	80.006	19.994	103.353	19.607	37.417	0.523
695.999	426.660	80.006	19.993	103.354	19.608	37.348	0.529
696.499	426.859	80.006	19.994	103.352	19.611	37.131	0.487
697.000	427.165	80.006	19.994	103.348	19.614	36.917	0.481
697.500	427.416	80.006	19.994	103.341	19.618	36.603	0.531
697.999	427.660	80.006	19.995	103.341	19.622	36.293	0.527
698.499	427.886	80.007	19.994	103.345	19.623	36.184	0.483
698.999	428.164	80.006	19.994	103.348	19.622	36.237	0.487
699.499	428.433	80.007	19.994	103.353	19.631	35.560	0.525
699.999	428.671	80.007	19.995	103.354	19.634	35.318	0.527
700.499	428.920	80.007	19.995	103.350	19.632	35.490	0.497
700.999	429.197	80.005	19.994	103.343	19.636	35.200	0.506
701.499	429.431	80.007	19.994	103.339	19.637	35.084	0.519
701.999	429.757	80.008	19.995	103.335	19.645	34.453	0.536
702.499	429.957	80.006	19.994	103.334	19.648	34.233	0.543
702.999	430.221	80.007	19.993	103.332	19.646	34.354	0.495
703.499	430.479	80.005	19.994	103.332	19.658	33.433	0.493
703.999	430.759	80.006	19.994	103.332	19.657	33.486	0.530
704.499	431.003	80.006	19.995	103.328	19.660	33.286	0.531
704.999	431.282	80.005	19.994	103.327	19.667	32.719	0.523
705.499	431.499	80.007	19.995	103.325	19.675	32.110	0.510
705.999	431.785	80.006	19.994	103.319	19.673	32.259	0.500
706.499	432.028	80.007	19.993	103.318	19.678	31.825	0.516
706.999	432.295	80.007	19.994	103.321	19.681	31.624	0.520
707.499	432.531	80.008	19.996	103.322	19.688	31.059	0.507
708.000	432.810	80.007	19.994	103.325	19.690	30.938	0.509
708.500	433.076	80.007	19.994	103.329	19.695	30.541	0.530
708.999	433.336	80.007	19.994	103.327	19.697	30.401	0.536
709.499	433.550	80.006	19.993	103.327	19.701	30.081	0.501
709.999	433.867	80.007	19.995	103.327	19.706	29.632	0.503
710.499	434.108	80.007	19.994	103.323	19.708	29.473	0.544
710.999	434.357	80.006	19.994	103.325	19.717	28.795	0.524
711.499	434.662	80.008	19.994	103.325	19.719	28.608	0.522
711.999	434.909	80.006	19.994	103.324	19.724	28.241	0.553
712.499	435.196	80.007	19.994	103.326	19.728	27.947	0.542
712.999	435.451	80.007	19.995	103.326	19.727	27.997	0.538
713.499	435.694	80.008	19.995	103.325	19.737	27.203	0.520
713.999	435.952	80.008	19.995	103.326	19.740	27.031	0.499
714.499	436.207	80.007	19.994	103.326	19.743	26.789	0.507
714.999	436.468	80.008	19.995	103.323	19.747	26.473	0.514
715.499	436.694	80.006	19.993	103.322	19.752	26.093	0.501
715.999	437.034	80.007	19.994	103.317	19.753	25.992	0.527
716.499	437.274	80.008	19.994	103.312	19.759	25.519	0.573
717.000	437.493	80.006	19.994	103.308	19.760	25.445	0.519
717.500	437.788	80.008	19.994	103.306	19.765	25.008	0.487
717.999	438.023	80.006	19.994	103.302	19.762	25.262	0.522
718.499	438.280	80.007	19.993	103.301	19.778	23.995	0.511
718.999	438.513	80.006	19.994	103.299	19.779	23.940	0.491
719.499	438.768	80.007	19.995	103.297	19.786	23.360	0.489
719.999	439.054	80.006	19.992	103.294	19.791	22.975	0.514
720.499	439.295	80.006	19.995	103.294	19.784	23.559	0.534
720.999	439.605	80.007	19.993	103.294	19.786	23.356	0.540
721.500	439.845	80.007	19.995	103.295	19.798	22.408	0.551
722.000	440.122	80.006	19.995	103.294	19.806	21.854	0.533
722.499	440.349	80.007	19.995	103.294	19.802	22.105	0.510
722.999	440.624	80.005	19.995	103.292	19.800	22.265	0.503
723.499	440.911	80.005	19.994	103.292	19.807	21.715	0.532
723.999	441.134	80.005	19.995	103.290	19.810	21.538	0.536
724.499	441.419	80.006	19.994	103.290	19.810	21.508	0.509
724.999	441.667	80.006	19.995	103.289	19.817	20.965	0.521
725.499	441.934	80.007	19.994	103.291	19.819	20.767	0.524
725.999	442.233	80.006	19.994	103.289	19.835	19.510	0.541
726.499	442.442	80.007	19.994	103.289	19.825	20.346	0.537
726.999	442.737	80.005	19.993	103.287	19.824	20.440	0.506
727.499	442.986	80.006	19.994	103.285	19.830	19.964	0.524
727.999	443.205	80.007	19.993	103.279	19.840	19.145	0.506
728.499	443.543	80.006	19.994	103.274	19.837	19.365	0.512
728.999	443.798	80.006	19.994	103.268	19.848	18.542	0.575
729.499	444.027	80.008	19.993	103.263	19.843	18.920	0.539
729.999	444.255	80.006	19.993	103.259	19.847	18.593	0.471
730.499	444.601	80.007	19.995	103.258	19.847	18.617	0.515
730.999	444.808	80.007	19.994	103.260	19.851	18.282	0.564
731.499	445.091	80.006	19.994	103.262	19.854	18.046	0.522
731.999	445.443	80.007	19.995	103.265	19.860	17.570	0.562
732.499	445.577	80.006	19.995	103.268	19.856	17.866	0.560
733.000	445.827	80.007	19.993	103.269	19.862	17.422	0.435
733.500	446.082	80.007	19.995	103.266	19.865	17.173	0.445
733.999	446.358	80.007	19.994	103.264	19.866	17.076	0.518
734.499	446.681	80.007	19.994	103.259	19.870	16.821	0.565
734.999	446.889	80.006	19.995	103.256	19.872	16.673	0.566
735.499	447.151	80.007	19.994	103.254	19.876	16.302	0.501
736.000	447.429	80.009	19.996	103.253	19.875	16.397	0.505
736.500	447.746	80.009	19.995	103.253	19.878	16.162	0.568
736.999	447.956	80.008	19.994	103.252	19.883	15.812	0.561
737.499	448.219	80.008	19.994	103.251	19.885	15.593	0.500
737.999	448.550	80.007	19.996	103.249	19.886	15.539	0.533
738.499	448.886	80.007	19.995	103.249	19.891	15.144	0.631
738.999	449.143	80.009	19.994	103.249	19.892	15.041	0.630
739.499	449.342	80.007	19.995	103.248	19.892	15.035	0.524
739.999	449.491	80.007	19.994	103.249	19.898	14.580	0.402
740.499	449.810	80.008	19.995	103.251	19.897	14.667	0.408
740.999	450.069	80.008	19.995	103.250	19.895	14.811	0.523
741.499	450.354	80.008	19.995	103.250	19.902	14.274	0.561
741.999	450.494	80.008	19.995	103.250	19.906	13.945	0.485
742.499	450.831	80.008	19.994	103.248	19.909	13.745	0.451
742.999	451.070	80.008	19.995	103.249	19.909	13.742	0.527
743.499	451.308	80.007	19.994	103.249	19.916	13.203	0.527
743.999	451.528	80.008	19.994	103.248	19.910	13.623	0.467
744.499	451.784	80.007	19.994	103.248	19.915	13.269	0.467
744.999	452.059	80.008	19.994	103.249	19.920	12.907	0.504
745.500	452.287	80.009	19.995	103.249	19.924	12.562	0.517
746.000	452.579	80.009	19.994	103.249	19.927	12.358	0.511
746.499	452.801	80.007	19.996	103.250	19.925	12.492	0.517
746.999	453.049	80.006	19.995	103.251	19.924	12.529	0.492
747.499	453.358	80.007	19.995	103.250	19.922	12.724	0.514
747.999	453.588	80.006	19.995	103.247	19.924	12.599	0.548
748.499	453.823	80.007	19.994	103.246	19.929	12.191	0.502
748.999	454.087	80.008	19.994	103.244	19.930	12.092	0.482
749.499	454.332	80.007	19.995	103.242	19.933	11.819	0.504
749.999	454.616	80.009	19.995	103.243	19.935	11.665	0.519
750.499	454.876	80.008	19.995	103.243	19.932	11.919	0.536
750.999	455.102	80.007	19.995	103.245	19.935	11.690	0.516
751.499	455.417	80.007	19.995	103.247	19.939	11.426	0.514
751.999	455.640	80.008	19.995	103.249	19.944	10.976	0.540
752.499	455.938	80.008	19.994	103.247	19.940	11.325	0.529
752.999	456.156	80.008	19.996	103.243	19.941	11.267	0.518
753.499	456.442	80.007	19.995	103.236	19.942	11.114	0.510
753.999	456.667	80.008	19.995	103.232	19.945	10.914	0.508
754.499	456.911	80.007	19.994	103.231	19.945	10.888	0.490
754.999	457.159	80.009	19.995	103.226	19.948	10.695	0.480
755.499	457.451	80.008	19.995	103.225	19.949	10.639	0.516
755.999	457.733	80.008	19.995	103.226	19.953	10.296	0.557
756.499	457.956	80.007	19.994	103.228	19.956	10.075	0.540
756.999	458.193	80.006	19.994	103.230	19.952	10.405	0.483
757.500	458.460	80.007	19.995	103.236	19.955	10.128	0.482
758.000	458.773	80.008	19.994	103.239	19.954	10.248	0.542
758.499	459.010	80.007	19.994	103.239	19.958	9.918	0.565
758.999	459.252	80.008	19.995	103.234	19.959	9.785	0.515
759.499	459.571	80.008	19.994	103.229	19.957	9.950	0.520
759.999	459.801	80.007	19.996	103.228	19.959	9.789	0.555
760.499	460.088	80.009	19.995	103.228	19.959	9.840	0.533
760.999	460.312	80.007	19.995	103.232	19.964	9.388	0.514
761.499	460.679	80.008	19.994	103.238	19.964	9.403	0.551
761.999	460.824	80.009	19.994	103.243	19.967	9.218	0.551
762.499	461.111	80.007	19.993	103.243	19.965	9.366	0.472
762.999	461.334	80.008	19.995	103.243	19.968	9.120	0.471
763.500	461.611	80.008	19.995	103.240	19.967	9.197	0.505
764.000	461.858	80.008	19.995	103.235	19.971	8.912	0.512
764.499	462.133	80.008	19.994	103.228	19.972	8.764	0.523
765.000	462.395	80.010	19.995	103.224	19.976	8.487	0.529
765.500	462.624	80.008	19.994	103.221	19.978	8.315	0.514
765.999	462.898	80.009	19.994	103.220	19.976	8.494	0.497
766.499	463.168	80.008	19.994	103.221	19.972	8.811	0.523
767.000	463.404	80.009	19.996	103.223	19.980	8.146	0.525
767.500	463.672	80.008	19.996	103.221	19.977	8.442	0.505
767.999	463.919	80.010	19.996	103.221	19.979	8.215	0.509
768.499	464.180	80.008	19.995	103.220	19.976	8.502	0.511
768.999	464.406	80.008	19.996	103.216	19.980	8.159	0.497
769.499	464.647	80.007	19.995	103.216	19.982	8.009	0.477
769.999	464.933	80.009	19.995	103.216	19.977	8.416	0.497
770.499	465.194	80.008	19.995	103.216	19.985	7.758	0.537
770.999	465.408	80.006	19.995	103.215	19.984	7.896	0.511
771.499	465.665	80.008	19.994	103.215	19.985	7.769	0.473
771.999	465.916	80.007	19.996	103.214	19.986	7.733	0.489
772.499	466.200	80.007	19.995	103.214	19.987	7.630	0.521
772.999	466.393	80.006	19.995	103.213	19.986	7.700	0.506
773.499	466.690	80.007	19.995	103.213	19.992	7.209	0.484
773.999	466.943	80.006	19.994	103.213	19.991	7.350	0.520
774.500	467.167	80.006	19.996	103.213	19.990	7.363	0.514
775.000	467.441	80.006	19.996	103.213	19.990	7.363	0.487
775.499	467.749	80.007	19.996	103.215	19.993	7.140	0.540
775.999	467.981	80.007	19.996	103.215	19.987	7.599	0.561
776.499	468.214	80.007	19.995	103.215	19.988	7.520	0.502
776.999	468.467	80.005	19.995	103.215	19.993	7.149	0.475
777.499	468.741	80.006	19.995	103.215	19.991	7.297	0.507
777.999	468.963	80.006	19.995	103.214	19.992	7.200	0.512
778.499	469.243	80.006	19.995	103.213	19.991	7.307	0.499
778.999	469.464	80.006	19.995	103.213	19.992	7.226	0.501
779.500	469.717	80.006	19.995	103.213	19.993	7.168	0.488
780.000	469.989	80.006	19.994	103.214	19.994	7.054	0.500
780.500	470.246	80.004	19.994	103.214	19.995	7.007	0.527
780.999	470.511	80.006	19.995	103.216	19.996	6.885	0.526
781.499	470.745	80.006	19.994	103.217	19.997	6.810	0.510
781.999	471.005	80.006	19.994	103.223	20.000	6.570	0.496
782.499	471.253	80.006	19.995	103.222	19.997	6.823	0.501
782.999	471.472	80.006	19.995	103.222	20.000	6.642	0.488
783.499	471.703	80.006	19.994	103.221	20.000	6.567	0.458
784.000	471.984	80.005	19.994	103.219	20.001	6.561	0.481
784.500	472.235	80.007	19.995	103.214	20.004	6.306	0.522
784.999	472.494	80.005	19.994	103.214	20.002	6.415	0.521
785.499	472.735	80.006	19.994	103.214	20.003	6.336	0.505
785.999	473.014	80.005	19.994	103.214	20.001	6.494	0.510
786.499	473.279	80.006	19.995	103.215	20.004	6.278	0.532
786.999	473.504	80.007	19.995	103.216	20.005	6.222	0.517
787.499	473.721	80.006	19.995	103.215	20.006	6.141	0.466
787.999	474.036	80.006	19.993	103.215	20.005	6.205	0.487
788.499	474.236	80.006	19.994	103.214	20.008	6.005	0.524
788.999	474.506	80.005	19.993	103.214	20.008	5.949	0.493
789.499	474.786	80.005	19.994	103.214	20.006	6.110	0.510
789.999	475.017	80.005	19.994	103.213	20.009	5.917	0.530
790.499	475.245	80.007	19.994	103.212	20.009	5.885	0.485
790.999	475.493	80.007	19.994	103.212	20.006	6.112	0.468
791.500	475.747	80.007	19.994	103.212	20.010	5.840	0.489
792.000	476.000	80.008	19.994	103.212	20.008	5.947	0.505
792.500	476.238	80.006	19.993	103.213	20.005	6.243	0.499
793.000	476.465	80.006	19.993	103.214	20.013	5.606	0.478
793.499	476.744	80.006	19.994	103.215	20.009	5.892	0.485
793.999	477.023	80.006	19.993	103.215	20.010	5.825	0.532
794.499	477.260	80.005	19.994	103.215	20.007	6.033	0.537
794.999	477.511	80.008	19.993	103.215	20.007	6.052	0.502
795.499	477.759	80.007	19.994	103.215	20.008	5.985	0.494
795.999	478.024	80.007	19.994	103.213	20.009	5.931	0.506
796.500	478.261	80.007	19.994	103.213	20.011	5.757	0.507
797.000	478.481	80.006	19.995	103.213	20.007	6.084	0.479
797.499	478.740	80.006	19.995	103.213	20.006	6.107	0.468
797.999	479.007	80.008	19.994	103.212	20.012	5.689	0.502
798.499	479.230	80.007	19.995	103.213	20.018	5.222	0.508
799.000	479.492	80.007	19.994	103.212	20.013	5.553	0.488
799.500	479.744	80.006	19.994	103.210	20.011	5.726	0.499
800.000	480.029	80.007	19.994	103.210	20.008	5.984	0.526
800.500	480.247	80.006	19.995	103.210	20.014	5.523	0.520
801.000	480.553	80.008	19.995	103.206	20.014	5.521	0.513
801.500	480.808	80.006	19.994	103.206	20.013	5.548	0.542
801.999	481.019	80.006	19.994	103.207	20.012	5.649	0.514
802.499	481.281	80.008	19.995	103.207	20.013	5.570	0.469
802.999	481.516	80.006	19.994	103.207	20.016	5.371	0.485
803.499	481.789	80.008	19.995	103.211	20.016	5.347	0.503
803.999	482.030	80.008	19.994	103.212	20.018	5.186	0.511
804.499	482.284	80.005	19.994	103.212	20.012	5.666	0.505
804.999	482.523	80.008	19.994	103.212	20.018	5.160	0.494
805.499	482.787	80.007	19.994	103.208	20.018	5.201	0.498
805.999	483.051	80.007	19.995	103.205	20.018	5.205	0.515
806.500	483.296	80.006	19.993	103.198	20.019	5.137	0.518
807.000	483.551	80.007	19.995	103.194	20.017	5.302	0.504
807.499	483.794	80.006	19.994	103.189	20.014	5.536	0.499
807.999	484.030	80.006	19.994	103.193	20.014	5.516	0.488
808.500	484.198	80.007	19.994	103.195	20.018	5.179	0.441
809.000	484.517	80.006	19.993	103.200	20.016	5.314	0.446
809.499	484.768	80.007	19.995	103.204	20.013	5.557	0.529
809.999	485.023	80.007	19.995	103.208	20.017	5.282	0.538
810.499	485.244	80.006	19.995	103.208	20.021	4.975	0.491
810.999	485.503	80.006	19.995	103.209	20.015	5.434	0.478
811.499	485.743	80.006	19.995	103.209	20.016	5.323	0.490
811.999	486.021	80.007	19.994	103.210	20.018	5.233	0.509
812.499	486.266	80.006	19.995	103.210	20.014	5.477	0.521
812.999	486.573	80.005	19.994	103.211	20.017	5.239	0.537
813.500	486.841	80.007	19.994	103.212	20.015	5.402	0.563
814.000	487.045	80.007	19.995	103.213	20.016	5.380	0.523
814.500	487.288	80.008	19.994	103.210	20.015	5.447	0.459
815.000	487.586	80.008	19.995	103.208	20.018	5.209	0.494
815.500	487.808	80.007	19.994	103.208	20.017	5.279	0.531
815.999	488.036	80.006	19.994	103.208	20.016	5.314	0.485
816.500	488.323	80.007	19.994	103.208	20.016	5.314	0.483
817.000	488.608	80.006	19.994	103.211	20.019	5.080	0.544
817.499	488.858	80.008	19.994	103.212	20.015	5.444	0.553
817.999	489.112	80.008	19.994	103.212	20.019	5.094	0.519
818.499	489.346	80.008	19.993	103.211	20.022	4.891	0.496
818.999	489.625	80.008	19.995	103.210	20.018	5.184	0.500
819.500	489.865	80.007	19.994	103.207	20.016	5.332	0.516
820.000	490.120	80.007	19.994	103.203	20.017	5.236	0.507
820.499	490.382	80.007	19.994	103.202	20.024	4.747	0.506
820.999	490.656	80.008	19.994	103.202	20.015	5.459	0.526
821.499	490.836	80.009	19.993	103.201	20.019	5.081	0.496
822.000	491.133	80.007	19.993	103.199	20.021	4.953	0.466
822.500	491.370	80.009	19.993	103.200	20.017	5.291	0.505
823.000	491.627	80.008	19.993	103.200	20.022	4.893	0.514
823.500	491.873	80.008	19.994	103.201	20.023	4.773	0.498
823.999	492.152	80.008	19.994	103.199	20.022	4.846	0.513
824.499	492.383	80.009	19.994	103.200	20.016	5.385	0.517
824.999	492.661	80.008	19.994	103.198	20.020	5.009	0.510
825.499	492.898	80.010	19.994	103.196	20.025	4.636	0.512
825.999	493.169	80.008	19.995	103.195	20.021	4.969	0.512
826.499	493.437	80.007	19.993	103.194	20.019	5.142	0.524
826.999	493.681	80.009	19.995	103.191	20.023	4.831	0.525
827.499	493.920	80.008	19.994	103.189	20.021	4.966	0.497
827.999	494.185	80.007	19.995	103.184	20.019	5.150	0.493
828.499	494.471	80.008	19.994	103.181	20.021	4.950	0.528
829.000	494.729	80.007	19.994	103.178	20.023	4.766	0.548
829.500	495.027	80.008	19.994	103.178	20.016	5.386	0.550
829.999	495.251	80.007	19.994	103.178	20.017	5.298	0.539
830.499	495.533	80.008	19.993	103.179	20.017	5.277	0.514
830.999	495.777	80.007	19.993	103.176	20.019	5.129	0.515
831.499	496.052	80.008	19.993	103.177	20.018	5.177	0.522
831.999	496.280	80.008	19.994	103.177	20.016	5.329	0.511
832.499	496.547	80.008	19.994	103.177	20.017	5.269	0.499
832.999	496.818	80.008	19.993	103.176	20.021	4.980	0.517
833.500	497.050	80.006	19.994	103.176	20.021	4.999	0.521
834.000	497.330	80.006	19.994	103.180	20.018	5.183	0.507
834.499	497.575	80.006	19.994	103.185	20.019	5.141	0.519
834.999	497.827	80.006	19.994	103.191	20.013	5.617	0.511
835.499	498.078	80.008	19.995	103.194	20.023	4.806	0.500
835.999	498.344	80.008	19.994	103.197	20.014	5.523	0.510
836.499	498.604	80.008	19.994	103.198	20.018	5.227	0.522
836.999	498.844	80.007	19.994	103.194	20.021	4.950	0.513
837.499	499.077	80.006	19.995	103.189	20.019	5.087	0.486
837.999	499.364	80.009	19.995	103.187	20.023	4.803	0.497
838.500	499.604	80.007	19.994	103.183	20.022	4.909	0.524
839.000	499.855	80.007	19.994	103.177	20.022	4.866	0.509
839.500	500.123	80.007	19.995	103.175	20.020	5.063	0.505
840.000	500.363	80.006	19.994	103.175	20.024	4.727	0.514
840.500	500.662	80.007	19.994	103.175	20.019	5.138	0.523
841.000	500.896	80.007	19.996	103.175	20.023	4.771	0.536
841.499	501.170	80.009	19.994	103.181	20.017	5.275	0.521
841.999	501.431	80.008	19.995	103.187	20.021	4.956	0.522
842.499	501.683	80.007	19.995	103.194	20.021	4.994	0.524
842.999	501.909	80.008	19.996	103.200	20.021	4.985	0.496
843.499	502.146	80.006	19.992	103.207	20.022	4.897	0.471
843.999	502.410	80.008	19.994	103.206	20.022	4.880	0.482
844.499	502.706	80.010	19.995	103.204	20.022	4.869	0.530
844.999	502.939	80.008	19.995	103.203	20.021	4.938	0.544
845.499	503.187	80.009	19.994	103.204	20.021	4.985	0.505
845.999	503.442	80.008	19.994	103.204	20.025	4.676	0.492
846.499	503.669	80.009	19.995	103.206	20.026	4.563	0.493
846.999	503.969	80.008	19.995	103.208	20.026	4.598	0.504
847.499	504.196	80.009	19.994	103.210	20.019	5.138	0.527
847.999	504.456	80.007	19.993	103.206	20.021	4.975	0.507
848.499	504.683	80.009	19.994	103.198	20.024	4.746	0.487
848.999	504.956	80.008	19.993	103.194	20.031	4.214	0.494
849.499	505.234	80.008	19.994	103.196	20.026	4.555	0.526
849.999	505.444	80.008	19.993	103.196	20.029	4.304	0.519
850.499	505.686	80.008	19.994	103.196	20.027	4.452	0.470
850.999	505.953	80.008	19.994	103.202	20.026	4.531	0.480
851.499	506.266	80.010	19.994	103.203	20.025	4.658	0.544
851.999	506.480	80.009	19.995	103.198	20.028	4.447	0.553
852.499	506.753	80.008	19.994	103.192	20.023	4.789	0.507
852.999	506.991	80.008	19.994	103.191	20.028	4.400	0.500
853.499	507.233	80.008	19.995	103.188	20.029	4.341	0.496
853.999	507.515	80.008	19.994	103.184	20.029	4.349	0.502
854.500	507.747	80.009	19.994	103.181	20.022	4.861	0.519
855.000	507.994	80.009	19.995	103.181	20.023	4.767	0.497
855.499	508.249	80.007	19.994	103.180	20.025	4.623	0.491
855.999	508.550	80.008	19.994	103.181	20.021	4.944	0.528
856.499	508.754	80.006	19.994	103.181	20.022	4.847	0.530
857.000	508.990	80.005	19.994	103.182	20.029	4.312	0.473
857.500	509.293	80.006	19.994	103.189	20.025	4.614	0.490
858.000	509.534	80.005	19.994	103.194	20.028	4.406	0.542
858.500	509.811	80.006	19.994	103.198	20.028	4.444	0.531
858.999	510.041	80.006	19.995	103.202	20.027	4.492	0.512
859.500	510.305	80.007	19.994	103.208	20.023	4.798	0.500
860.000	510.555	80.006	19.995	103.202	20.026	4.593	0.504
860.499	510.823	80.008	19.994	103.203	20.019	5.084	0.516
860.999	511.064	80.007	19.995	103.199	20.026	4.603	0.514
861.499	511.277	80.007	19.996	103.199	20.022	4.914	0.482
861.999	511.540	80.005	19.994	103.195	20.021	4.974	0.465
862.499	511.805	80.007	19.995	103.197	20.025	4.648	0.502
862.999	512.066	80.007	19.997	103.194	20.024	4.735	0.527
863.499	512.309	80.006	19.996	103.196	20.025	4.624	0.515
863.999	512.564	80.006	19.996	103.198	20.027	4.515	0.501
864.500	512.804	80.008	19.995	103.202	20.023	4.824	0.496
865.000	513.071	80.007	19.996	103.200	20.028	4.432	0.501
865.500	513.351	80.006	19.996	103.194	20.026	4.569	0.527
866.000	513.631	80.005	19.996	103.188	20.026	4.601	0.553
866.499	513.861	80.007	19.996	103.181	20.024	4.738	0.535
866.999	514.131	80.008	19.996	103.173	20.025	4.616	0.505
867.499	514.372	80.005	19.995	103.172	20.027	4.453	0.505
867.999	514.630	80.007	19.997	103.174	20.023	4.839	0.505
868.499	514.931	80.006	19.996	103.176	20.028	4.412	0.529
868.999	515.165	80.006	19.996	103.175	20.023	4.805	0.547
869.499	515.440	80.007	19.996	103.175	20.025	4.618	0.522
869.999	515.676	80.005	19.995	103.175	20.024	4.749	0.510
870.499	515.939	80.006	19.996	103.178	20.030	4.260	0.505
870.999	516.164	80.006	19.996	103.179	20.028	4.389	0.494
871.499	516.471	80.007	19.996	103.179	20.028	4.383	0.510
871.999	516.683	80.007	19.995	103.175	20.024	4.724	0.525
872.499	516.957	80.005	19.995	103.170	20.026	4.544	0.502
873.000	517.197	80.006	19.996	103.164	20.025	4.672	0.500
873.500	517.475	80.007	19.995	103.161	20.027	4.511	0.516
873.999	517.726	80.006	19.995	103.161	20.027	4.484	0.524
874.499	517.966	80.005	19.995	103.166	20.031	4.190	0.510
874.999	518.227	80.007	19.996	103.169	20.031	4.138	0.496
875.499	518.481	80.006	19.996	103.172	20.022	4.867	0.508
875.999	518.742	80.007	19.994	103.175	20.022	4.863	0.515
876.499	519.024	80.006	19.994	103.177	20.022	4.908	0.529
876.999	519.272	80.006	19.995	103.176	20.018	5.161	0.537
877.500	519.533	80.008	19.995	103.176	20.023	4.777	0.520
878.000	519.772	80.008	19.994	103.173	20.025	4.634	0.504
878.500	520.021	80.006	19.994	103.171	20.028	4.402	0.493
879.000	520.289	80.008	19.995	103.170	20.025	4.657	0.502
879.500	520.545	80.008	19.994	103.171	20.025	4.612	0.521
879.999	520.794	80.007	19.994	103.172	20.025	4.659	0.515
880.499	521.033	80.008	19.994	103.175	20.026	4.543	0.496
880.999	521.316	80.008	19.995	103.176	20.028	4.445	0.505
881.499	521.560	80.008	19.994	103.177	20.025	4.668	0.524
881.999	521.815	80.006	19.994	103.180	20.027	4.481	0.513
882.499	522.050	80.007	19.994	103.184	20.025	4.678	0.494
883.000	522.308	80.007	19.994	103.187	20.022	4.914	0.491
883.500	522.571	80.007	19.994	103.189	20.021	4.922	0.507
883.999	522.817	80.006	19.994	103.189	20.021	4.971	0.515
884.499	523.085	80.008	19.995	103.186	20.031	4.202	0.512
884.999	523.344	80.007	19.995	103.185	20.025	4.611	0.520
885.499	523.597	80.006	19.995	103.183	20.023	4.768	0.519
885.999	523.829	80.007	19.994	103.186	20.026	4.569	0.498
886.499	524.109	80.006	19.994	103.188	20.027	4.518	0.499
886.999	524.355	80.006	19.994	103.189	20.030	4.267	0.519
887.500	524.607	80.006	19.995	103.186	20.027	4.520	0.512
888.000	524.870	80.006	19.994	103.186	20.028	4.438	0.506
888.499	525.128	80.006	19.995	103.185	20.025	4.631	0.518
888.999	525.402	80.006	19.995	103.186	20.026	4.545	0.526
889.499	525.629	80.006	19.994	103.187	20.020	5.047	0.517
889.999	525.900	80.007	19.995	103.186	20.020	5.028	0.499
890.499	526.127	80.008	19.994	103.185	20.022	4.843	0.498
890.999	526.376	80.006	19.994	103.182	20.024	4.753	0.487
891.499	526.623	80.006	19.994	103.178	20.027	4.498	0.486
891.999	526.858	80.007	19.994	103.179	20.021	4.987	0.489
892.500	527.140	80.008	19.996	103.179	20.020	5.009	0.499
893.000	527.385	80.005	19.995	103.178	20.026	4.565	0.522
893.500	527.645	80.008	19.995	103.175	20.022	4.888	0.516
893.999	527.903	80.008	19.995	103.174	20.023	4.796	0.511
894.499	528.160	80.006	19.996	103.168	20.024	4.749	0.516
894.999	528.418	80.006	19.994	103.166	20.028	4.415	0.515
895.499	528.660	80.007	19.995	103.166	20.031	4.154	0.507
895.999	528.924	80.005	19.995	103.166	20.018	5.172	0.503
896.499	529.187	80.007	19.995	103.166	20.024	4.713	0.517
896.999	529.425	80.006	19.995	103.173	20.026	4.550	0.514
897.499	529.683	80.006	19.994	103.180	20.021	4.977	0.498
897.999	529.916	80.005	19.995	103.180	20.017	5.240	0.493
898.499	530.205	80.008	19.995	103.180	20.028	4.430	0.506
899.000	530.439	80.006	19.995	103.181	20.022	4.856	0.522
899.500	530.724	80.006	19.995	103.178	20.020	5.034	0.521
899.999	530.964	80.007	19.993	103.174	20.028	4.393	0.522
900.499	531.191	80.009	19.995	103.175	20.021	4.923	0.496
900.999	531.479	80.006	19.995	103.175	20.023	4.831	0.491
901.499	531.722	80.007	19.995	103.179	20.027	4.512	0.523
901.999	531.964	80.007	19.995	103.180	20.025	4.645	0.508
902.500	532.251	80.008	19.994	103.178	20.021	4.992	0.507
903.000	532.466	80.008	19.995	103.178	20.027	4.456	0.516
903.499	532.693	80.007	19.994	103.178	20.023	4.775	0.472
903.999	532.956	80.008	19.995	103.174	20.019	5.129	0.466
904.499	533.211	80.008	19.995	103.176	20.025	4.612	0.504
904.999	533.470	80.008	19.994	103.181	20.027	4.468	0.516
905.499	533.760	80.007	19.995	103.185	20.022	4.901	0.531
905.999	533.980	80.008	19.993	103.190	20.021	4.957	0.529
906.499	534.259	80.008	19.994	103.195	20.025	4.640	0.505
906.999	534.527	80.008	19.996	103.198	20.025	4.664	0.523
907.499	534.769	80.009	19.995	103.196	20.022	4.886	0.528
907.999	535.011	80.009	19.994	103.192	20.030	4.228	0.497
908.499	535.328	80.009	19.994	103.187	20.022	4.882	0.521
908.999	535.548	80.009	19.995	103.181	20.025	4.631	0.548
909.499	535.828	80.008	19.994	103.176	20.033	4.054	0.519
909.999	536.059	80.009	19.994	103.175	20.031	4.140	0.506
910.500	536.298	80.009	19.994	103.177	20.026	4.571	0.490
911.000	536.571	80.008	19.994	103.183	20.026	4.531	0.491
911.499	536.824	80.008	19.994	103.191	20.028	4.383	0.519
911.999	537.074	80.009	19.994	103.191	20.027	4.514	0.514
912.499	537.342	80.008	19.995	103.190	20.027	4.475	0.511
913.000	537.555	80.008	19.995	103.193	20.025	4.623	0.500
913.500	537.803	80.008	19.994	103.192	20.025	4.661	0.471
914.000	538.073	80.007	19.995	103.185	20.032	4.070	0.489
914.500	538.312	80.007	19.992	103.185	20.028	4.443	0.513
914.999	538.611	80.007	19.994	103.181	20.021	4.942	0.523
915.499	538.801	80.007	19.994	103.178	20.032	4.130	0.514
915.999	539.083	80.007	19.995	103.180	20.026	4.575	0.481
916.500	539.351	80.007	19.993	103.182	20.031	4.213	0.511
917.000	539.610	80.009	19.994	103.182	20.021	4.925	0.539
917.500	539.826	80.007	19.993	103.185	20.029	4.344	0.501
918.000	540.089	80.007	19.993	103.184	20.023	4.815	0.476
918.500	540.339	80.008	19.993	103.179	20.032	4.069	0.496
918.999	540.603	80.009	19.993	103.176	20.024	4.699	0.514
919.499	540.875	80.007	19.993	103.177	20.029	4.322	0.525
919.999	541.153	80.007	19.993	103.179	20.027	4.489	0.543
920.499	541.374	80.008	19.995	103.179	20.028	4.444	0.525
920.999	541.617	80.008	19.994	103.180	20.028	4.371	0.482
921.500	541.872	80.008	19.994	103.181	20.023	4.835	0.481
922.000	542.116	80.007	19.994	103.185	20.025	4.674	0.499
922.500	542.384	80.008	19.993	103.186	20.029	4.297	0.506
923.000	542.597	80.008	19.994	103.185	20.028	4.432	0.496
923.499	542.899	80.008	19.995	103.184	20.028	4.409	0.498
923.999	543.139	80.010	19.995	103.184	20.026	4.557	0.528
924.499	543.378	80.008	19.994	103.180	20.025	4.666	0.511
924.999	543.653	80.010	19.994	103.181	20.021	4.951	0.497
925.499	543.909	80.009	19.994	103.182	20.023	4.822	0.523
925.999	544.152	80.008	19.993	103.182	20.021	4.953	0.515
926.499	544.408	80.009	19.993	103.180	20.024	4.738	0.499
926.999	544.628	80.008	19.994	103.179	20.027	4.487	0.487
927.499	544.885	80.009	19.994	103.175	20.025	4.665	0.476
928.000	545.145	80.008	19.995	103.171	20.020	5.019	0.497
928.500	545.395	80.011	19.994	103.170	20.023	4.781	0.514
929.000	545.653	80.010	19.994	103.169	20.025	4.614	0.509
929.500	545.932	80.010	19.995	103.169	20.025	4.685	0.522
930.000	546.162	80.010	19.994	103.169	20.021	4.957	0.523
930.499	546.416	80.011	19.995	103.171	20.021	4.964	0.497
930.999	546.699	80.010	19.994	103.172	20.021	4.976	0.510
931.500	546.972	80.008	19.995	103.172	20.022	4.863	0.546
932.000	547.200	80.012	19.995	103.172	20.016	5.335	0.528
932.499	547.462	80.011	19.994	103.173	20.020	5.045	0.495
932.999	547.699	80.010	19.996	103.175	20.022	4.848	0.494
933.499	547.979	80.009	19.995	103.181	20.019	5.120	0.508
933.999	548.197	80.008	19.995	103.187	20.021	4.946	0.508
934.499	548.471	80.009	19.994	103.192	20.022	4.888	0.495
934.999	548.721	80.010	19.996	103.197	20.021	4.974	0.508
935.500	548.944	80.009	19.994	103.197	20.021	4.940	0.498
936.000	549.207	80.008	19.994	103.190	20.021	4.961	0.479
936.499	549.505	80.010	19.996	103.184	20.024	4.757	0.524
936.999	549.713	80.009	19.996	103.182	20.022	4.905	0.534
937.499	549.951	80.009	19.995	103.177	20.023	4.772	0.476
937.999	550.241	80.010	19.995	103.175	20.025	4.663	0.487
938.499	550.481	80.007	19.994	103.176	20.024	4.753	0.529
939.000	550.689	80.008	19.994	103.175	20.022	4.912	0.489
939.500	551.010	80.007	19.994	103.174	20.016	5.387	0.489
939.999	551.247	80.008	19.995	103.173	20.017	5.269	0.544
940.499	551.481	80.009	19.996	103.174	20.021	4.980	0.515
940.999	551.793	80.008	19.995	103.177	20.019	5.124	0.508
941.499	552.011	80.008	19.994	103.178	20.021	4.952	0.538
941.999	552.216	80.006	19.993	103.178	20.020	5.019	0.476
942.499	552.502	80.007	19.994	103.181	20.019	5.141	0.457
942.999	552.759	80.006	19.994	103.182	20.023	4.781	0.517
943.499	552.997	80.007	19.996	103.180	20.019	5.111	0.518
943.999	553.275	80.006	19.994	103.180	20.018	5.184	0.505
944.499	553.501	80.008	19.997	103.181	20.022	4.895	0.510
944.999	553.797	80.006	19.994	103.178	20.021	4.972	0.513
945.499	554.082	80.009	19.996	103.176	20.012	5.684	0.552
945.999	554.302	80.008	19.994	103.175	20.015	5.442	0.543
946.499	554.577	80.006	19.994	103.173	20.018	5.221	0.500
946.999	554.838	80.007	19.995	103.172	20.016	5.366	0.515
947.499	555.062	80.005	19.995	103.171	20.020	5.023	0.511
947.999	555.322	80.007	19.993	103.171	20.018	5.178	0.485
948.499	555.583	80.007	19.995	103.171	20.012	5.650	0.502
948.999	555.845	80.008	19.994	103.172	20.016	5.341	0.521
949.499	556.095	80.007	19.995	103.171	20.013	5.603	0.517
950.000	556.369	80.007	19.995	103.168	20.011	5.729	0.518
950.500	556.586	80.006	19.995	103.167	20.010	5.853	0.508
950.999	556.865	80.006	19.995	103.166	20.009	5.935	0.494
951.499	557.108	80.008	19.995	103.166	20.016	5.364	0.509
951.999	557.380	80.007	19.996	103.168	20.016	5.347	0.518
952.499	557.605	80.007	19.995	103.171	20.015	5.401	0.506
952.999	557.881	80.008	19.995	103.172	20.011	5.746	0.499
953.500	558.132	80.007	19.995	103.170	20.012	5.661	0.514
954.000	558.415	80.007	19.994	103.170	20.013	5.558	0.531
954.500	558.606	80.008	19.996	103.171	20.012	5.644	0.504
954.999	558.889	80.007	19.996	103.174	20.013	5.558	0.474
955.499	559.114	80.007	19.996	103.177	20.009	5.881	0.491
955.999	559.392	80.006	19.995	103.179	20.012	5.697	0.506
956.499	559.680	80.005	19.996	103.180	20.015	5.418	0.535
956.999	559.906	80.006	19.996	103.178	20.017	5.274	0.540
957.500	560.138	80.006	19.995	103.176	20.014	5.544	0.486
958.000	560.416	80.006	19.996	103.173	20.012	5.669	0.484
958.499	560.652	80.006	19.995	103.174	20.009	5.917	0.511
958.999	560.910	80.005	19.995	103.175	20.015	5.433	0.504
959.499	561.141	80.008	19.995	103.178	20.010	5.821	0.492
959.999	561.437	80.004	19.994	103.180	20.011	5.720	0.508
960.499	561.685	80.007	19.997	103.181	20.014	5.540	0.536
960.999	561.909	80.006	19.995	103.183	20.015	5.444	0.508
961.500	562.169	80.006	19.995	103.181	20.013	5.579	0.478
962.000	562.441	80.008	19.996	103.180	20.009	5.905	0.508
962.500	562.706	80.006	19.994	103.178	20.009	5.898	0.534
962.999	562.947	80.005	19.995	103.177	20.011	5.780	0.521
963.499	563.168	80.005	19.995	103.176	20.013	5.605	0.484
963.999	563.414	80.007	19.996	103.180	20.013	5.573	0.464
964.499	563.678	80.005	19.994	103.185	20.007	6.045	0.488
964.999	563.915	80.005	19.995	103.188	20.013	5.598	0.506
965.499	564.178	80.007	19.996	103.188	20.017	5.309	0.501
965.999	564.405	80.005	19.995	103.188	20.009	5.905	0.495
966.499	564.674	80.006	19.995	103.184	20.012	5.673	0.493
966.999	564.946	80.004	19.995	103.179	20.014	5.510	0.518
967.499	565.175	80.006	19.995	103.177	20.011	5.742	0.521
967.999	565.407	80.005	19.994	103.177	20.013	5.617	0.481
968.499	565.698	80.005	19.995	103.177	20.012	5.662	0.492
968.999	565.969	80.005	19.995	103.177	20.015	5.446	0.542
969.499	566.193	80.006	19.996	103.175	20.015	5.457	0.529
969.999	566.438	80.006	19.995	103.175	20.013	5.585	0.482
970.499	566.680	80.008	19.995	103.175	20.013	5.547	0.478
970.999	566.925	80.006	19.996	103.175	20.015	5.403	0.487
971.499	567.155	80.006	19.995	103.176	20.012	5.658	0.482
971.999	567.472	80.005	19.995	103.176	20.013	5.600	0.511
972.499	567.714	80.007	19.994	103.177	20.019	5.150	0.553
972.999	567.969	80.005	19.995	103.177	20.022	4.854	0.528
973.499	568.232	80.007	19.993	103.178	20.016	5.352	0.507
973.999	568.479	80.006	19.994	103.179	20.013	5.602	0.514
974.499	568.730	80.005	19.994	103.182	20.015	5.433	0.504
974.999	568.962	80.006	19.994	103.183	20.016	5.326	0.490
975.499	569.216	80.007	19.995	103.185	20.018	5.221	0.485
975.999	569.472	80.008	19.994	103.185	20.017	5.266	0.499
976.499	569.747	80.007	19.994	103.184	20.018	5.217	0.520
976.999	569.963	80.007	19.995	103.181	20.016	5.386	0.511
977.499	570.223	80.007	19.994	103.180	20.016	5.367	0.483
977.999	570.461	80.007	19.994	103.177	20.018	5.197	0.487
978.499	570.732	80.007	19.993	103.175	20.018	5.225	0.504
978.999	570.970	80.008	19.995	103.175	20.022	4.882	0.509
979.500	571.222	80.008	19.994	103.175	20.020	5.062	0.499
980.000	571.476	80.007	19.994	103.175	20.018	5.159	0.498
980.500	571.738	80.008	19.994	103.176	20.019	5.103	0.511
981.000	571.921	80.007	19.995	103.179	20.017	5.266	0.481
981.499	572.198	80.008	19.995	103.179	20.021	4.977	0.452
981.999	572.471	80.007	19.994	103.179	20.017	5.264	0.505
982.499	572.697	80.009	19.996	103.182	20.024	4.728	0.524
983.000	572.952	80.008	19.994	103.181	20.020	5.017	0.490
983.500	573.212	80.009	19.994	103.182	20.019	5.148	0.499
983.999	573.459	80.009	19.994	103.182	20.018	5.189	0.511
984.499	573.731	80.009	19.995	103.182	20.015	5.409	0.512
984.999	573.974	80.010	19.995	103.178	20.020	5.041	0.516
985.499	574.229	80.009	19.994	103.179	20.019	5.152	0.506
985.999	574.493	80.007	19.993	103.181	20.022	4.904	0.509
986.499	574.780	80.008	19.994	103.181	20.020	5.007	0.535
986.999	575.028	80.011	19.994	103.182	20.020	5.024	0.543
987.499	575.249	80.008	19.994	103.182	20.018	5.214	0.502
987.999	575.487	80.011	19.994	103.181	20.023	4.807	0.464
988.499	575.803	80.008	19.993	103.179	20.016	5.313	0.507
988.999	576.027	80.012	19.994	103.178	20.018	5.202	0.547
989.499	576.264	80.010	19.993	103.177	20.018	5.159	0.500
989.999	576.518	80.009	19.995	103.177	20.022	4.896	0.476
990.499	576.767	80.008	19.994	103.177	20.020	5.073	0.497
990.999	577.019	80.009	19.994	103.180	20.020	5.007	0.502
991.499	577.321	80.008	19.994	103.183	20.022	4.914	0.527
991.999	577.533	80.010	19.994	103.184	20.015	5.394	0.534
992.499	577.782	80.009	19.994	103.186	20.019	5.150	0.488
992.999	578.053	80.010	19.994	103.188	20.020	5.047	0.490
993.499	578.315	80.009	19.995	103.186	20.017	5.234	0.526
993.999	578.562	80.010	19.994	103.183	20.017	5.255	0.521
994.500	578.788	80.009	19.994	103.182	20.016	5.356	0.491
995.000	579.001	80.007	19.994	103.180	20.015	5.412	0.456
995.499	579.286	80.009	19.994	103.177	20.017	5.307	0.469
995.999	579.534	80.007	19.994	103.178	20.014	5.523	0.516
996.499	579.811	80.009	19.994	103.180	20.014	5.478	0.529
996.999	580.070	80.007	19.994	103.182	20.010	5.847	0.530
997.499	580.304	80.009	19.994	103.182	20.018	5.204	0.514
998.000	580.556	80.007	19.994	103.182	20.017	5.292	0.490
998.500	580.818	80.009	19.994	103.181	20.016	5.317	0.500
999.000	581.061	80.008	19.995	103.180	20.014	5.491	0.509
999.499	581.327	80.008	19.994	103.183	20.015	5.452	0.507
999.999	581.576	80.007	19.994	103.184	20.017	5.296	0.513
1000.499	581.814	80.009	19.995	103.189	20.017	5.283	0.501
1000.999	582.090	80.008	19.995	103.194	20.019	5.137	0.500
1001.499	582.324	80.009	19.994	103.191	20.016	5.367	0.512
1001.999	582.595	80.009	19.994	103.186	20.015	5.416	0.508
1002.499	582.859	80.007	19.993	103.184	20.016	5.358	0.520
1002.999	583.084	80.008	19.995	103.179	20.013	5.555	0.511
1003.499	583.359	80.007	19.995	103.173	20.020	5.056	0.495
1003.999	583.626	80.007	19.995	103.173	20.013	5.609	0.521
1004.499	583.871	80.008	19.994	103.177	20.015	5.396	0.527
1004.999	584.097	80.007	19.994	103.177	20.017	5.306	0.491
1005.499	584.344	80.009	19.994	103.178	20.013	5.570	0.472
1005.999	584.610	80.010	19.994	103.179	20.017	5.247	0.493
1006.499	584.863	80.009	19.993	103.182	20.016	5.386	0.516
1006.999	585.102	80.010	19.994	103.182	20.015	5.393	0.506
1007.499	585.383	80.007	19.993	103.182	20.018	5.230	0.506
1007.999	585.624	80.010	19.994	103.182	20.016	5.331	0.521
1008.499	585.885	80.009	19.993	103.182	20.019	5.087	0.512
1008.999	586.138	80.008	19.993	103.180	20.012	5.645	0.508
1009.499	586.411	80.011	19.995	103.179	20.018	5.209	0.520
1009.999	586.645	80.010	19.994	103.180	20.015	5.456	0.516
1010.499	586.928	80.011	19.994	103.181	20.014	5.535	0.512
1010.999	587.150	80.011	19.994	103.183	20.012	5.696	0.511
1011.499	587.384	80.010	19.994	103.182	20.012	5.642	0.480
1011.999	587.673	80.009	19.993	103.179	20.013	5.616	0.489
1012.499	587.916	80.010	19.993	103.177	20.015	5.410	0.528
1012.999	588.172	80.010	19.994	103.178	20.018	5.207	0.515
1013.499	588.430	80.010	19.993	103.176	20.015	5.466	0.506
1013.999	588.662	80.011	19.994	103.177	20.016	5.374	0.502
1014.499	588.946	80.011	19.994	103.177	20.011	5.709	0.503
1014.999	589.178	80.012	19.994	103.177	20.012	5.640	0.516
1015.499	589.461	80.010	19.995	103.174	20.015	5.423	0.516
1015.999	589.723	80.014	19.994	103.174	20.011	5.781	0.530
1016.499	589.929	80.010	19.994	103.178	20.014	5.515	0.506
1016.999	590.208	80.011	19.995	103.181	20.010	5.846	0.476
1017.499	590.449	80.011	19.994	103.184	20.013	5.563	0.503
1017.999	590.733	80.012	19.995	103.190	20.015	5.426	0.523
1018.499	590.976	80.011	19.994	103.195	20.009	5.880	0.526
1018.999	591.235	80.007	19.995	103.199	20.012	5.695	0.515
1019.499	591.484	80.009	19.995	103.201	20.013	5.599	0.505
1019.999	591.733	80.007	19.995	103.204	20.015	5.421	0.503
1020.499	592.035	80.010	19.995	103.202	20.012	5.641	0.524
1020.999	592.289	80.008	19.994	103.201	20.009	5.890	0.553
1021.499	592.520	80.009	19.995	103.198	20.012	5.693	0.520
1022.000	592.765	80.009	19.995	103.198	20.014	5.528	0.481
1022.500	593.010	80.009	19.995	103.194	20.014	5.534	0.483
1022.999	593.303	80.008	19.994	103.198	20.014	5.517	0.514
1023.499	593.541	80.007	19.994	103.196	20.012	5.697	0.535
1023.999	593.780	80.008	19.994	103.198	20.009	5.883	0.504
1024.499	594.063	80.008	19.995	103.199	20.011	5.757	0.499
1025.000	594.281	80.006	19.996	103.204	20.009	5.915	0.511
1025.500	594.575	80.007	19.994	103.199	20.013	5.622	0.507
1026.000	594.830	80.007	19.995	103.201	20.014	5.478	0.531
1026.499	595.077	80.007	19.995	103.198	20.008	5.988	0.525
1026.999	595.356	80.008	19.996	103.197	20.010	5.785	0.514
1027.499	595.596	80.007	19.996	103.195	20.009	5.892	0.523
1027.999	595.872	80.007	19.996	103.200	20.010	5.815	0.518
1028.499	596.107	80.007	19.995	103.202	20.011	5.729	0.513
1028.999	596.331	80.008	19.995	103.200	20.009	5.909	0.485
1029.499	596.601	80.007	19.994	103.198	20.010	5.819	0.476
1029.999	596.870	80.008	19.995	103.194	20.009	5.862	0.516
1030.499	597.100	80.008	19.996	103.187	20.015	5.427	0.519
1031.000	597.373	80.007	19.995	103.185	20.007	6.038	0.501
1031.500	597.629	80.007	19.995	103.186	20.005	6.179	0.516
1031.999	597.904	80.008	19.996	103.184	20.010	5.838	0.530
1032.499	598.132	80.006	19.997	103.183	20.013	5.557	0.517
1032.999	598.378	80.006	19.994	103.183	20.009	5.877	0.488
1033.499	598.656	80.007	19.994	103.179	20.007	6.051	0.499
1033.999	598.912	80.007	19.996	103.177	20.007	6.040	0.529
1034.499	599.141	80.006	19.994	103.176	20.011	5.716	0.509
1034.999	599.443	80.009	19.994	103.176	20.014	5.489	0.508
1035.499	599.641	80.008	19.995	103.175	20.011	5.750	0.515
1036.000	599.891	80.007	19.995	103.176	20.014	5.502	0.474
1036.500	600.164	80.007	19.995	103.177	20.009	5.907	0.485
1037.000	600.409	80.008	19.995	103.178	20.009	5.885	0.521
1037.500	600.682	80.008	19.994	103.179	20.008	5.984	0.518
1037.999	600.889	80.009	19.995	103.180	20.011	5.716	0.499
1038.499	601.181	80.007	19.996	103.182	20.011	5.727	0.489
1038.999	601.412	80.008	19.994	103.183	20.013	5.603	0.511
1039.500	601.663	80.008	19.994	103.184	20.013	5.590	0.503
1040.000	601.913	80.009	19.995	103.185	20.013	5.579	0.492
1040.499	602.179	80.008	19.995	103.185	20.013	5.622	0.508
1040.999	602.429	80.010	19.994	103.183	20.015	5.416	0.516
1041.499	602.682	80.007	19.995	103.181	20.010	5.809	0.510
1041.999	602.940	80.008	19.995	103.181	20.012	5.693	0.507
1042.499	603.185	80.010	19.995	103.179	20.010	5.791	0.507
1042.999	603.399	80.009	19.995	103.178	20.008	5.944	0.481
1043.499	603.702	80.009	19.994	103.178	20.019	5.131	0.488
1043.999	603.951	80.006	19.994	103.179	20.014	5.530	0.534
1044.499	604.209	80.007	19.994	103.178	20.016	5.343	0.530
1044.999	604.442	80.009	19.994	103.179	20.014	5.504	0.499
1045.499	604.701	80.008	19.995	103.178	20.011	5.723	0.491
1045.999	604.971	80.008	19.994	103.176	20.015	5.461	0.511
1046.499	605.225	80.007	19.995	103.176	20.019	5.112	0.526
1047.000	605.454	80.008	19.996	103.176	20.016	5.356	0.503
1047.500	605.724	80.006	19.995	103.175	20.015	5.447	0.491
1047.999	605.980	80.006	19.995	103.176	20.016	5.344	0.513
1048.500	606.252	80.006	19.995	103.177	20.017	5.266	0.527
1049.000	606.506	80.007	19.995	103.177	20.017	5.298	0.527
1049.500	606.744	80.006	19.995	103.179	20.017	5.244	0.509
1050.000	607.019	80.006	19.994	103.180	20.020	5.055	0.502
1050.499	607.251	80.007	19.995	103.181	20.022	4.884	0.510
1050.999	607.511	80.007	19.995	103.184	20.019	5.141	0.499
1051.499	607.756	80.006	19.995	103.184	20.019	5.083	0.499
1051.999	608.019	80.005	19.994	103.183	20.020	5.002	0.507
1052.499	608.244	80.005	19.995	103.184	20.020	5.060	0.498
1052.999	608.517	80.005	19.995	103.184	20.018	5.178	0.493
1053.499	608.774	80.005	19.996	103.181	20.020	5.070	0.514
1053.999	609.019	80.006	19.994	103.182	20.021	4.987	0.516
1054.499	609.314	80.005	19.995	103.184	20.024	4.727	0.521
1054.999	609.559	80.007	19.996	103.184	20.025	4.624	0.540
1055.499	609.807	80.005	19.997	103.185	20.024	4.712	0.517
1056.000	610.046	80.006	19.996	103.186	20.022	4.903	0.490
1056.500	610.286	80.007	19.995	103.184	20.020	5.036	0.483
1056.999	610.523	80.006	19.996	103.185	20.026	4.545	0.478
1057.499	610.758	80.009	19.995	103.186	20.021	4.991	0.474
1057.999	611.057	80.008	19.995	103.189	20.027	4.451	0.502
1058.499	611.295	80.009	19.996	103.191	20.018	5.214	0.536
1058.999	611.535	80.007	19.995	103.190	20.020	5.049	0.508
1059.499	611.783	80.004	19.996	103.186	20.022	4.905	0.483
1059.999	612.070	80.000	19.997	103.182	20.026	4.601	0.511
1060.499	612.300	80.005	19.995	103.175	20.024	4.736	0.526
1060.999	612.531	80.007	19.995	103.172	20.025	4.659	0.489
1061.500	612.810	80.008	19.995	103.172	20.022	4.871	0.485
1062.000	613.046	80.006	19.996	103.173	20.023	4.815	0.512
1062.500	613.338	80.003	19.997	103.174	20.024	4.730	0.522
1063.000	613.589	80.002	19.995	103.174	20.020	5.073	0.536
1063.499	613.809	80.006	19.994	103.174	20.028	4.371	0.507
1063.999	614.061	79.999	19.996	103.172	20.025	4.654	0.471
1064.499	614.349	80.007	19.995	103.169	20.025	4.627	0.506
1064.999	614.604	80.010	19.995	103.169	20.023	4.820	0.542
1065.499	614.849	80.008	19.996	103.170	20.027	4.515	0.522
1065.999	615.077	80.009	19.995	103.171	20.031	4.155	0.486
1066.499	615.372	80.008	19.994	103.171	20.027	4.451	0.498
1066.999	615.599	80.009	19.995	103.174	20.027	4.502	0.523
1067.499	615.854	80.008	19.996	103.174	20.027	4.483	0.503
1067.999	616.094	80.008	19.995	103.172	20.022	4.845	0.489
1068.499	616.345	80.009	19.994	103.171	20.026	4.566	0.493
1068.999	616.612	80.010	19.995	103.170	20.025	4.684	0.504
1069.499	616.871	80.011	19.994	103.170	20.025	4.676	0.522
1069.999	617.110	80.008	19.995	103.170	20.026	4.549	0.513
1070.499	617.386	80.009	19.994	103.174	20.022	4.897	0.507
1071.000	617.630	80.010	19.994	103.175	20.027	4.492	0.517
1071.500	617.860	80.010	19.996	103.176	20.028	4.427	0.497
1071.999	618.128	80.010	19.995	103.176	20.023	4.766	0.486
1072.500	618.384	80.010	19.995	103.176	20.025	4.622	0.511
1073.000	618.647	80.008	19.994	103.173	20.024	4.723	0.522
1073.499	618.866	80.009	19.994	103.172	20.024	4.762	0.501
1073.999	619.134	80.009	19.993	103.172	20.023	4.815	0.484
1074.499	619.376	80.009	19.995	103.172	20.023	4.772	0.498
1074.999	619.626	80.008	19.994	103.172	20.022	4.901	0.501
1075.499	619.905	80.008	19.993	103.173	20.023	4.817	0.511
1075.999	620.157	80.008	19.996	103.172	20.025	4.652	0.530
1076.499	620.417	80.009	19.994	103.173	20.022	4.854	0.522
1076.999	620.670	80.008	19.995	103.173	20.025	4.676	0.512
1077.500	620.936	80.009	19.994	103.173	20.030	4.260	0.515
1078.000	621.174	80.007	19.993	103.173	20.023	4.775	0.511
1078.499	621.424	80.009	19.994	103.173	20.027	4.485	0.496
1078.999	621.663	80.010	19.994	103.171	20.025	4.625	0.489
1079.499	621.915	80.008	19.994	103.167	20.023	4.807	0.491
1079.999	622.175	80.008	19.994	103.165	20.026	4.586	0.502
1080.500	622.445	80.009	19.995	103.167	20.034	3.902	0.521
1081.000	622.730	80.010	19.994	103.168	20.029	4.352	0.542
1081.499	622.992	80.010	19.995	103.172	20.025	4.672	0.551
1081.999	623.238	80.007	19.995	103.176	20.025	4.672	0.527
1082.499	623.513	80.009	19.994	103.177	20.032	4.127	0.514
1082.999	623.760	80.009	19.995	103.176	20.028	4.391	0.522
1083.499	623.966	80.008	19.995	103.174	20.029	4.303	0.487
1083.999	624.290	80.007	19.995	103.170	20.031	4.155	0.491
1084.500	624.471	80.008	19.995	103.170	20.035	3.870	0.518
1085.000	624.764	80.008	19.995	103.169	20.031	4.172	0.489
1085.500	625.010	80.010	19.993	103.169	20.031	4.174	0.506
1085.999	625.263	80.009	19.995	103.171	20.030	4.264	0.519
1086.499	625.510	80.009	19.995	103.173	20.030	4.217	0.500
1086.999	625.833	80.006	19.996	103.172	20.032	4.110	0.535
1087.499	626.066	80.010	19.994	103.174	20.031	4.200	0.563
1087.999	626.259	80.009	19.995	103.176	20.031	4.185	0.491
1088.500	626.478	80.008	19.994	103.176	20.033	4.013	0.419
1089.000	626.773	80.010	19.994	103.176	20.033	3.990	0.463
1089.499	627.063	80.009	19.995	103.176	20.034	3.934	0.549
1089.999	627.317	80.008	19.994	103.175	20.034	3.916	0.564
1090.499	627.575	80.009	19.995	103.173	20.030	4.259	0.528
1091.000	627.887	80.009	19.995	103.171	20.032	4.101	0.541
1091.500	628.091	80.008	19.994	103.172	20.027	4.527	0.543
1091.999	628.381	80.009	19.994	103.171	20.032	4.090	0.505
1092.499	628.616	80.011	19.994	103.171	20.030	4.268	0.510
1092.999	628.912	80.011	19.994	103.171	20.033	3.981	0.528
1093.499	629.216	80.010	19.994	103.172	20.033	4.052	0.565
1093.999	629.442	80.009	19.994	103.172	20.032	4.059	0.565
1094.500	629.758	80.009	19.994	103.172	20.028	4.395	0.536
1095.000	630.009	80.011	19.994	103.174	20.031	4.198	0.555
1095.500	630.224	80.011	19.994	103.175	20.032	4.093	0.516
1095.999	630.466	80.011	19.994	103.175	20.035	3.829	0.461
1096.499	630.768	80.011	19.993	103.176	20.029	4.331	0.501
1096.999	631.001	80.011	19.994	103.176	20.028	4.432	0.540
1097.499	631.259	80.012	19.995	103.176	20.032	4.123	0.513
1097.999	631.547	80.011	19.994	103.175	20.032	4.129	0.518
1098.499	631.787	80.009	19.994	103.176	20.032	4.084	0.537
1098.999	632.049	80.003	19.995	103.176	20.030	4.282	0.515
1099.499	632.335	80.009	19.994	103.171	20.029	4.335	0.525
1099.999	632.593	80.010	19.994	103.163	20.033	4.046	0.546
1100.499	632.852	80.009	19.994	103.157	20.030	4.273	0.531
1100.999	633.104	80.008	19.994	103.154	20.030	4.251	0.515
1101.499	633.373	80.010	19.994	103.154	20.033	4.035	0.516
1101.999	633.622	80.009	19.994	103.155	20.027	4.474	0.519
1102.499	633.880	80.010	19.994	103.160	20.030	4.217	0.512
1102.999	634.154	80.010	19.995	103.167	20.036	3.750	0.519
1103.499	634.438	80.007	19.994	103.169	20.036	3.814	0.545
1103.999	634.685	80.007	19.993	103.169	20.032	4.099	0.545
1104.499	634.922	80.008	19.995	103.172	20.031	4.174	0.508
1104.999	635.192	80.008	19.993	103.174	20.030	4.226	0.496
1105.499	635.458	80.009	19.994	103.174	20.033	4.054	0.521
1105.999	635.703	80.009	19.994	103.175	20.028	4.378	0.524
1106.499	635.985	80.010	19.994	103.176	20.035	3.867	0.519
1106.999	636.266	80.008	19.993	103.176	20.033	4.017	0.545
1107.499	636.498	80.007	19.994	103.177	20.030	4.219	0.538
1107.999	636.773	80.009	19.994	103.177	20.034	3.947	0.510
1108.499	637.007	80.006	19.994	103.177	20.037	3.683	0.508
1108.999	637.263	80.014	19.993	103.177	20.034	3.915	0.499
1109.499	637.588	80.007	19.994	103.178	20.034	3.904	0.535
1109.999	637.822	80.007	19.993	103.176	20.038	3.628	0.570
1110.499	638.064	80.008	19.994	103.176	20.035	3.878	0.517
1111.000	638.308	80.007	19.994	103.175	20.035	3.853	0.481
1111.500	638.570	80.007	19.995	103.173	20.036	3.816	0.496
1111.999	638.851	80.006	19.994	103.172	20.036	3.808	0.525
1112.499	639.112	80.008	19.995	103.171	20.037	3.729	0.543
1112.999	639.358	80.006	19.995	103.172	20.032	4.104	0.524
1113.499	639.603	80.007	19.994	103.169	20.031	4.157	0.499
1113.999	639.871	80.008	19.995	103.170	20.034	3.945	0.502
1114.499	640.131	80.010	19.995	103.171	20.038	3.608	0.521
1115.000	640.391	80.006	19.995	103.172	20.032	4.114	0.524
1115.500	640.639	80.009	19.995	103.170	20.031	4.179	0.514
1115.999	640.904	80.006	19.995	103.173	20.039	3.559	0.511
1116.499	641.157	80.007	19.995	103.168	20.034	3.975	0.516
1116.999	641.439	80.007	19.994	103.162	20.032	4.074	0.527
1117.500	641.685	80.007	19.994	103.162	20.032	4.067	0.531
1118.000	641.968	80.007	19.995	103.163	20.032	4.080	0.528
1118.499	642.191	80.006	19.994	103.165	20.030	4.215	0.518
1118.999	642.454	80.009	19.995	103.169	20.029	4.331	0.496
1119.499	642.701	80.005	19.995	103.175	20.030	4.275	0.498
1120.000	642.976	80.006	19.994	103.174	20.032	4.101	0.516
1120.500	643.241	80.010	19.994	103.175	20.031	4.174	0.531
1121.000	643.485	80.006	19.994	103.174	20.030	4.258	0.525
1121.499	643.744	80.009	19.995	103.174	20.032	4.084	0.506
1121.999	643.940	80.011	19.994	103.175	20.030	4.232	0.479
1122.499	644.249	80.006	19.995	103.176	20.031	4.151	0.480
1122.999	644.533	80.008	19.995	103.177	20.031	4.157	0.548
1123.499	644.780	80.009	19.995	103.178	20.033	4.056	0.562
1123.999	645.006	80.007	19.996	103.179	20.033	4.054	0.502
1124.499	645.296	80.004	19.995	103.178	20.030	4.241	0.495
1124.999	645.521	80.014	19.995	103.175	20.034	3.956	0.516
1125.499	645.754	80.005	19.995	103.175	20.029	4.309	0.487
1125.999	646.051	80.008	19.995	103.175	20.032	4.108	0.494
1126.499	646.288	80.007	19.995	103.175	20.029	4.341	0.532
1127.000	646.565	80.008	19.995	103.175	20.031	4.168	0.524
1127.500	646.842	80.009	19.995	103.175	20.029	4.298	0.534
1127.999	647.085	80.010	19.995	103.173	20.029	4.303	0.537
1128.499	647.314	80.005	19.996	103.169	20.030	4.239	0.496
1128.999	647.562	80.011	19.996	103.168	20.034	3.906	0.474
1129.499	647.841	80.012	19.995	103.169	20.032	4.067	0.502
1129.999	648.068	80.007	19.996	103.171	20.030	4.269	0.517
1130.499	648.312	80.009	19.994	103.171	20.031	4.138	0.489
1130.999	648.572	80.008	19.995	103.175	20.029	4.341	0.488
1131.499	648.807	80.008	19.994	103.174	20.032	4.129	0.499
1131.999	649.054	80.009	19.995	103.173	20.029	4.354	0.488
1132.500	649.305	80.007	19.995	103.172	20.034	3.921	0.490
1133.000	649.523	80.009	19.996	103.170	20.032	4.103	0.483
1133.499	649.814	80.008	19.993	103.169	20.032	4.120	0.489
1133.999	650.018	80.008	19.994	103.169	20.026	4.549	0.502
1134.499	650.305	80.007	19.994	103.170	20.031	4.172	0.493
1134.999	650.539	80.007	19.995	103.170	20.030	4.275	0.506
1135.499	650.814	80.008	19.993	103.171	20.034	3.956	0.515
1135.999	651.035	80.007	19.995	103.171	20.033	4.022	0.502
1136.499	651.304	80.007	19.995	103.171	20.033	4.013	0.493
1136.999	651.582	80.007	19.995	103.169	20.033	4.056	0.518
1137.499	651.787	80.005	19.995	103.169	20.031	4.185	0.515
1138.000	652.043	80.007	19.996	103.169	20.028	4.376	0.472
1138.500	652.303	80.007	19.995	103.169	20.029	4.316	0.488
1139.000	652.553	80.007	19.996	103.170	20.031	4.146	0.513
1139.500	652.772	80.008	19.995	103.172	20.030	4.226	0.490
1140.000	652.987	80.005	19.994	103.172	20.029	4.324	0.451
1140.499	653.310	80.005	19.996	103.172	20.029	4.328	0.486
1140.999	653.517	80.006	19.996	103.172	20.032	4.120	0.534
1141.499	653.752	80.005	19.996	103.171	20.031	4.206	0.486
1141.999	654.031	80.006	19.996	103.171	20.035	3.880	0.478
1142.499	654.262	80.006	19.996	103.171	20.030	4.253	0.512
1142.999	654.543	80.007	19.996	103.169	20.031	4.165	0.512
1143.499	654.787	80.006	19.996	103.168	20.032	4.060	0.518
1143.999	655.013	80.013	19.995	103.166	20.032	4.084	0.497
1144.499	655.288	80.010	19.995	103.168	20.028	4.446	0.485
1144.999	655.497	80.008	19.996	103.169	20.033	4.024	0.493
1145.500	655.749	80.008	19.996	103.172	20.031	4.144	0.472
1146.000	656.014	80.008	19.995	103.175	20.030	4.284	0.489
1146.499	656.266	80.006	19.995	103.176	20.032	4.103	0.517
1146.999	656.513	80.008	19.995	103.173	20.030	4.249	0.508
1147.499	656.741	80.008	19.996	103.171	20.034	3.962	0.487
1148.000	656.977	80.009	19.995	103.168	20.033	4.013	0.469
1148.500	657.248	80.009	19.995	103.167	20.032	4.090	0.485
1148.999	657.505	80.007	19.995	103.167	20.033	4.054	0.517
1149.499	657.758	80.009	19.995	103.168	20.031	4.157	0.519
1149.999	657.967	80.009	19.996	103.168	20.031	4.161	0.486
1150.499	658.240	80.008	19.996	103.169	20.028	4.421	0.472
1150.999	658.507	80.008	19.995	103.168	20.030	4.243	0.511
1151.499	658.739	80.008	19.996	103.166	20.033	4.041	0.519
1151.999	658.982	80.009	19.995	103.164	20.034	3.962	0.487
1152.499	659.220	80.008	19.995	103.165	20.029	4.333	0.478
1153.000	659.470	80.007	19.996	103.164	20.036	3.775	0.485
1153.500	659.707	80.009	19.996	103.163	20.036	3.814	0.487
1154.000	659.987	80.007	19.995	103.165	20.033	3.987	0.502
1154.499	660.214	80.009	19.995	103.165	20.034	3.955	0.513
1154.999	660.481	80.007	19.995	103.166	20.031	4.183	0.500
1155.499	660.721	80.009	19.995	103.168	20.035	3.883	0.500
1155.999	660.970	80.007	19.995	103.168	20.034	3.962	0.498
1156.499	661.185	80.008	19.996	103.169	20.027	4.491	0.477
1156.999	661.455	80.007	19.995	103.170	20.033	4.000	0.474
1157.499	661.728	80.007	19.995	103.169	20.032	4.112	0.514
1157.999	661.982	80.007	19.995	103.165	20.033	4.054	0.535
1158.499	662.222	80.009	19.995	103.160	20.032	4.095	0.511
1158.999	662.462	80.007	19.995	103.155	20.030	4.241	0.487
1159.499	662.689	80.006	19.995	103.155	20.035	3.900	0.473
1159.999	662.975	80.007	19.995	103.157	20.031	4.144	0.490
1160.499	663.216	80.009	19.995	103.161	20.029	4.324	0.520
1161.000	663.398	80.010	19.995	103.167	20.029	4.361	0.475
1161.500	663.638	80.007	19.995	103.172	20.031	4.195	0.422
1162.000	663.899	80.008	19.994	103.172	20.031	4.199	0.462
1162.500	664.160	80.006	19.994	103.171	20.032	4.107	0.512
1163.000	664.393	80.007	19.994	103.167	20.032	4.101	0.508
1163.499	664.651	80.007	19.994	103.164	20.027	4.461	0.493
1163.999	664.881	80.007	19.995	103.165	20.033	4.026	0.489
1164.499	665.145	80.009	19.994	103.165	20.032	4.127	0.491
1164.999	665.372	80.007	19.996	103.166	20.031	4.208	0.492
1165.499	665.634	80.008	19.994	103.170	20.032	4.092	0.490
1165.999	665.867	80.008	19.995	103.173	20.031	4.197	0.492
1166.499	666.084	80.006	19.994	103.170	20.031	4.200	0.473
1166.999	666.383	80.008	19.994	103.168	20.031	4.157	0.483
1167.499	666.602	80.008	19.994	103.166	20.031	4.140	0.517
1167.999	666.861	80.011	19.994	103.165	20.033	4.026	0.498
1168.500	667.084	80.008	19.994	103.166	20.031	4.159	0.480
1169.000	667.334	80.010	19.994	103.168	20.031	4.164	0.478
1169.499	667.590	80.014	19.993	103.170	20.030	4.277	0.490
1169.999	667.818	80.010	19.994	103.173	20.030	4.243	0.495
1170.499	668.071	80.008	19.995	103.174	20.032	4.089	0.483
1170.999	668.294	80.007	19.994	103.171	20.029	4.335	0.479
1171.499	668.558	80.017	19.993	103.172	20.031	4.190	0.481
1171.999	668.797	80.008	19.994	103.173	20.032	4.097	0.495
1172.499	669.037	80.009	19.995	103.163	20.030	4.282	0.491
1172.999	669.273	80.009	19.993	103.159	20.028	4.421	0.478
1173.500	669.537	80.009	19.995	103.158	20.028	4.406	0.488
1174.000	669.802	80.009	19.994	103.159	20.027	4.506	0.514
1174.499	669.998	80.010	19.994	103.156	20.027	4.478	0.495
1174.999	670.302	80.008	19.994	103.163	20.031	4.137	0.481
1175.500	670.532	80.009	19.994	103.163	20.029	4.364	0.518
1176.000	670.789	80.010	19.994	103.162	20.025	4.682	0.511
1176.499	670.989	80.009	19.994	103.159	20.028	4.381	0.472
1176.999	671.269	80.013	19.994	103.160	20.031	4.161	0.468
1177.499	671.514	80.007	19.993	103.161	20.028	4.444	0.503
1177.999	671.736	80.011	19.992	103.165	20.028	4.397	0.496
1178.499	671.991	80.008	19.995	103.169	20.031	4.182	0.471
1178.999	672.232	80.010	19.993	103.171	20.026	4.553	0.487
1179.499	672.489	80.011	19.993	103.172	20.027	4.472	0.497
1179.999	672.742	80.010	19.993	103.173	20.028	4.420	0.504
1180.499	672.975	80.010	19.994	103.176	20.032	4.103	0.498
1180.999	673.235	80.010	19.994	103.177	20.032	4.113	0.490
1181.499	673.526	80.008	19.994	103.177	20.029	4.296	0.522
1181.999	673.739	80.011	19.994	103.180	20.030	4.244	0.528
1182.500	673.991	80.009	19.993	103.179	20.032	4.077	0.485
1183.000	674.198	80.010	19.994	103.178	20.032	4.095	0.462
1183.499	674.465	80.009	19.994	103.177	20.031	4.202	0.466
1184.000	674.705	80.007	19.996	103.176	20.031	4.163	0.490
1184.500	674.973	80.006	19.994	103.171	20.033	4.048	0.507
1184.999	675.206	80.007	19.995	103.169	20.029	4.344	0.505
1185.499	675.441	80.007	19.994	103.164	20.027	4.496	0.485
1186.000	675.719	80.008	19.994	103.157	20.027	4.487	0.491
1186.500	675.958	80.008	19.994	103.153	20.030	4.279	0.515
1187.000	676.210	80.007	19.994	103.154	20.031	4.204	0.504
1187.499	676.403	80.005	19.994	103.153	20.029	4.363	0.468
1188.000	676.677	80.008	19.996	103.157	20.030	4.228	0.456
1188.500	676.957	80.006	19.994	103.164	20.026	4.534	0.510
1188.999	677.202	80.009	19.994	103.167	20.029	4.335	0.540
1189.499	677.437	80.011	19.994	103.164	20.030	4.228	0.503
1189.999	677.689	80.005	19.994	103.165	20.033	4.020	0.484
1190.499	677.928	80.006	19.994	103.161	20.030	4.288	0.489
1191.000	678.198	80.007	19.994	103.155	20.031	4.168	0.500
1191.500	678.476	80.008	19.995	103.151	20.031	4.198	0.529
1191.999	678.661	80.008	19.994	103.153	20.030	4.279	0.506
1192.499	678.967	80.006	19.995	103.154	20.031	4.153	0.477
1192.999	679.215	80.006	19.995	103.158	20.031	4.202	0.522
1193.499	679.426	80.007	19.995	103.163	20.028	4.389	0.506
1193.999	679.719	80.006	19.995	103.168	20.028	4.382	0.482
1194.499	679.939	80.007	19.996	103.169	20.029	4.344	0.509
1194.999	680.209	80.006	19.993	103.171	20.027	4.478	0.502
1195.499	680.450	80.010	19.994	103.171	20.027	4.524	0.500
1195.999	680.720	80.005	19.995	103.172	20.028	4.412	0.511
1196.499	680.985	80.007	19.996	103.173	20.031	4.191	0.523
1196.999	681.239	80.004	19.994	103.172	20.027	4.463	0.527
1197.499	681.483	80.007	19.994	103.172	20.030	4.283	0.509
1197.999	681.714	80.007	19.995	103.171	20.031	4.146	0.486
1198.499	682.006	80.005	19.995	103.168	20.026	4.551	0.499
1198.999	682.247	80.008	19.995	103.167	20.030	4.292	0.528
1199.499	682.492	80.008	19.994	103.166	20.030	4.243	0.510
1199.999	682.762	80.010	19.992	103.167	20.031	4.200	0.501
1200.499	683.016	80.006	19.995	103.168	20.032	4.110	0.519
1200.999	683.268	80.012	19.994	103.170	20.029	4.296	0.515
1201.499	683.480	80.003	19.996	103.172	20.028	4.399	0.485
1201.999	683.782	80.013	19.994	103.169	20.034	3.949	0.489
1202.499	684.034	79.997	19.997	103.169	20.030	4.292	0.534
1202.999	684.315	80.011	19.994	103.166	20.030	4.221	0.544
1203.499	684.576	80.007	19.995	103.167	20.030	4.286	0.537
1203.999	684.813	80.009	19.994	103.167	20.030	4.223	0.520
1204.499	685.095	79.996	19.994	103.171	20.029	4.343	0.508
1204.999	685.362	80.009	19.993	103.166	20.029	4.345	0.534
1205.499	685.568	80.006	19.996	103.170	20.033	4.050	0.511
1205.999	685.838	80.008	19.994	103.168	20.029	4.369	0.475
1206.499	686.091	80.013	19.994	103.168	20.032	4.093	0.500
1206.999	686.382	80.009	19.994	103.168	20.032	4.112	0.533
1207.499	686.622	80.008	19.994	103.170	20.027	4.525	0.537
1207.999	686.857	80.008	19.993	103.168	20.029	4.339	0.503
1208.499	687.111	80.004	19.996	103.170	20.031	4.193	0.482
1208.999	687.341	80.010	19.994	103.167	20.032	4.135	0.487
1209.499	687.622	80.010	19.994	103.168	20.029	4.302	0.498
1209.999	687.895	80.010	19.995	103.170	20.034	3.918	0.532
1210.499	688.142	80.006	19.995	103.169	20.031	4.148	0.537
1210.999	688.362	80.011	19.995	103.168	20.030	4.225	0.494
1211.499	688.684	80.007	19.995	103.170	20.029	4.298	0.504
1211.999	688.933	80.009	19.994	103.167	20.032	4.107	0.556
1212.499	689.168	80.016	19.995	103.167	20.032	4.075	0.528
1212.999	689.429	80.007	19.995	103.169	20.034	3.966	0.491
1213.499	689.692	80.005	19.996	103.169	20.033	4.035	0.510
1213.999	689.941	80.007	19.994	103.167	20.032	4.122	0.518
1214.499	690.231	80.008	19.995	103.168	20.031	4.159	0.526
1214.999	690.453	80.009	19.997	103.167	20.032	4.103	0.525
1215.499	690.704	80.008	19.995	103.164	20.033	4.015	0.492
1215.999	690.956	80.008	19.996	103.164	20.029	4.307	0.488
1216.500	691.214	80.008	19.996	103.167	20.029	4.296	0.506
1217.000	691.468	80.006	19.995	103.168	20.030	4.286	0.511
1217.500	691.691	80.007	19.994	103.166	20.034	3.945	0.495
1218.000	691.954	80.004	19.996	103.161	20.031	4.140	0.482
1218.499	692.227	80.007	19.995	103.156	20.030	4.256	0.511
1218.999	692.474	80.011	19.995	103.153	20.032	4.084	0.528
1219.499	692.708	80.007	19.995	103.150	20.029	4.339	0.501
1219.999	692.979	80.017	19.994	103.150	20.030	4.289	0.493
1220.499	693.229	80.008	19.995	103.152	20.031	4.157	0.513
1220.999	693.468	80.001	19.995	103.150	20.031	4.189	0.505
1221.499	693.769	80.010	19.995	103.151	20.033	4.022	0.514
1221.999	694.004	80.005	19.995	103.152	20.034	3.945	0.538
1222.499	694.233	80.007	19.995	103.153	20.034	3.979	0.501
1222.999	694.482	80.005	19.997	103.157	20.037	3.743	0.471
1223.499	694.761	80.006	19.996	103.162	20.032	4.134	0.503
1223.999	695.001	80.011	19.995	103.164	20.031	4.198	0.523
1224.499	695.235	80.000	19.996	103.166	20.033	4.026	0.497
1224.999	695.506	80.010	19.995	103.164	20.033	4.003	0.490
1225.499	695.740	80.007	19.995	103.165	20.030	4.230	0.505
1225.999	696.003	80.012	19.993	103.164	20.029	4.305	0.501
1226.500	696.264	80.006	19.996	103.167	20.032	4.076	0.510
1227.000	696.509	80.005	19.996	103.167	20.031	4.149	0.515
1227.499	696.785	80.023	19.992	103.170	20.033	4.029	0.514
1227.999	696.988	80.016	19.995	103.176	20.034	3.928	0.500
1228.499	697.277	80.011	19.994	103.178	20.033	4.035	0.486
1229.000	697.508	80.009	19.995	103.175	20.034	3.956	0.506
1229.500	697.775	80.010	19.995	103.168	20.036	3.784	0.509
1229.999	698.042	80.011	19.994	103.166	20.034	3.925	0.516
1230.499	698.297	80.009	19.995	103.162	20.032	4.076	0.528
1230.999	698.546	80.012	19.995	103.160	20.035	3.883	0.513
1231.499	698.804	80.012	19.994	103.158	20.035	3.868	0.506
1231.999	699.059	80.011	19.993	103.165	20.035	3.831	0.510
1232.499	699.296	80.009	19.995	103.170	20.034	3.947	0.502
1232.999	699.534	80.007	19.994	103.169	20.033	3.985	0.483
1233.499	699.786	80.008	19.995	103.171	20.033	4.000	0.483
1233.999	700.039	80.008	19.995	103.174	20.035	3.874	0.498
1234.499	700.287	79.997	19.997	103.172	20.032	4.067	0.503
1234.999	700.556	80.009	19.994	103.167	20.035	3.844	0.509
1235.499	700.838	80.009	19.994	103.167	20.034	3.966	0.534
1235.999	701.091	80.012	19.994	103.167	20.034	3.930	0.543
1236.499	701.328	80.010	19.994	103.167	20.033	3.992	0.513
1236.999	701.631	80.008	19.994	103.168	20.035	3.838	0.515
1237.499	701.854	80.012	19.994	103.173	20.031	4.206	0.533
1237.999	702.074	80.010	19.994	103.173	20.035	3.876	0.485
1238.499	702.353	80.009	19.995	103.173	20.034	3.934	0.471
1239.000	702.567	80.007	19.996	103.172	20.034	3.910	0.496
1239.500	702.839	80.005	19.994	103.173	20.029	4.332	0.490
1239.999	703.088	80.008	19.994	103.171	20.034	3.929	0.503
1240.499	703.353	80.005	19.995	103.171	20.031	4.170	0.518
1240.999	703.671	80.007	19.995	103.170	20.030	4.217	0.548
1241.499	703.861	80.010	19.994	103.171	20.033	4.020	0.545
1241.999	704.144	80.007	19.995	103.171	20.026	4.596	0.490
1242.500	704.390	80.004	19.994	103.169	20.031	4.155	0.501
1243.000	704.648	80.007	19.995	103.164	20.031	4.208	0.517
1243.499	704.873	80.009	19.995	103.163	20.030	4.271	0.493
1243.999	705.129	80.006	19.994	103.163	20.032	4.088	0.482
1244.499	705.394	80.007	19.995	103.160	20.028	4.390	0.501
1244.999	705.634	80.010	19.995	103.161	20.027	4.499	0.513
1245.500	705.877	80.006	19.996	103.162	20.029	4.366	0.494
1246.000	706.173	80.003	19.994	103.163	20.030	4.289	0.511
1246.500	706.376	80.008	19.995	103.163	20.027	4.486	0.519
1246.999	706.602	79.995	19.996	103.164	20.030	4.289	0.464
1247.499	706.927	80.008	19.994	103.164	20.031	4.139	0.490
1247.999	707.127	80.005	19.994	103.169	20.030	4.270	0.538
1248.499	707.397	79.997	19.997	103.167	20.032	4.133	0.497
1249.000	707.644	80.010	19.994	103.163	20.035	3.880	0.493
1249.500	707.868	80.006	19.996	103.162	20.030	4.234	0.494
1249.999	708.166	80.005	19.995	103.159	20.030	4.264	0.496
1250.500	708.411	80.014	19.996	103.157	20.030	4.236	0.533
1251.000	708.632	80.015	19.995	103.160	20.030	4.270	0.505
1251.499	708.899	80.007	19.995	103.162	20.034	3.979	0.477
1251.999	709.170	80.008	19.995	103.162	20.033	3.987	0.513
1252.499	709.410	80.003	19.996	103.168	20.028	4.384	0.525
1253.000	709.678	80.006	19.995	103.170	20.033	3.994	0.510
1253.500	709.915	80.009	19.996	103.170	20.031	4.148	0.506
1254.000	710.171	80.010	19.994	103.169	20.030	4.231	0.499
1254.500	710.403	80.009	19.996	103.168	20.033	3.983	0.491
1254.999	710.666	80.009	19.996	103.166	20.035	3.880	0.492
1255.499	710.914	80.010	19.996	103.160	20.032	4.107	0.503
1255.999	711.164	80.011	19.994	103.155	20.032	4.086	0.504
1256.499	711.407	80.010	19.994	103.153	20.032	4.101	0.495
1256.999	711.610	80.010	19.995	103.152	20.031	4.185	0.469
1257.499	711.903	80.004	19.997	103.152	20.037	3.728	0.471
1258.000	712.131	80.014	19.995	103.156	20.034	3.910	0.509
1258.500	712.372	79.990	19.997	103.158	20.034	3.915	0.495
1258.999	712.676	80.012	19.992	103.155	20.034	3.929	0.507
1259.499	712.894	80.012	19.993	103.156	20.035	3.839	0.533
1259.999	713.158	80.019	19.992	103.157	20.034	3.972	0.502
1260.499	713.399	79.995	19.995	103.159	20.031	4.152	0.494
1261.000	713.644	80.012	19.995	103.158	20.032	4.094	0.496
1261.500	713.843	80.004	19.994	103.166	20.033	4.028	0.465
1262.000	714.144	80.025	19.992	103.163	20.035	3.859	0.472
1262.500	714.366	80.008	19.995	103.166	20.034	3.972	0.511
1262.999	714.629	80.013	19.994	103.162	20.036	3.775	0.504
1263.499	714.931	80.010	19.993	103.162	20.033	4.018	0.525
1263.999	715.119	80.002	19.993	103.160	20.034	3.919	0.527
1264.499	715.397	80.015	19.996	103.159	20.038	3.636	0.478
1264.999	715.684	80.001	19.996	103.153	20.032	4.107	0.515
1265.499	715.884	80.006	19.995	103.153	20.036	3.797	0.526
1265.999	716.113	79.999	19.996	103.155	20.035	3.863	0.458
1266.499	716.399	80.001	19.995	103.154	20.037	3.717	0.472
1266.999	716.671	80.009	19.994	103.157	20.032	4.122	0.536
1267.499	716.907	80.012	19.994	103.160	20.032	4.095	0.533
1267.999	717.198	80.021	19.993	103.162	20.032	4.082	0.517
1268.499	717.452	80.009	19.992	103.168	20.033	4.037	0.536
1268.999	717.632	80.013	19.994	103.169	20.034	3.960	0.489
1269.499	717.900	80.008	19.995	103.167	20.036	3.782	0.441
1269.999	718.179	80.019	19.993	103.162	20.033	3.981	0.497
1270.499	718.411	80.011	19.994	103.158	20.032	4.077	0.529
1270.999	718.626	80.008	19.994	103.150	20.030	4.281	0.479
1271.499	718.914	80.007	19.994	103.151	20.028	4.427	0.475
1271.999	719.135	80.009	19.994	103.155	20.031	4.157	0.506
1272.499	719.420	80.004	19.997	103.159	20.034	3.959	0.507
1273.000	719.669	80.007	19.994	103.161	20.032	4.116	0.521
1273.500	719.900	80.007	19.994	103.166	20.030	4.247	0.508
1273.999	720.146	80.005	19.993	103.166	20.032	4.131	0.478
1274.499	720.419	80.009	19.994	103.167	20.035	3.886	0.497
1274.999	720.682	80.007	19.994	103.166	20.034	3.949	0.527
1275.499	720.940	80.006	19.994	103.166	20.032	4.109	0.528
1275.999	721.198	80.007	19.995	103.164	20.033	4.026	0.519
1276.499	721.429	80.006	19.994	103.162	20.031	4.191	0.503
1276.999	721.690	80.009	19.995	103.161	20.036	3.762	0.491
1277.499	721.926	80.008	19.994	103.163	20.034	3.914	0.495
1277.999	722.177	80.010	19.993	103.165	20.030	4.270	0.492
1278.500	722.434	80.009	19.994	103.165	20.032	4.105	0.497
1279.000	722.671	80.006	19.994	103.166	20.033	4.054	0.501
1279.499	722.912	80.009	19.995	103.163	20.032	4.133	0.486
1279.999	723.184	80.007	19.994	103.163	20.034	3.936	0.495
1280.499	723.424	80.008	19.995	103.164	20.033	4.017	0.513
1280.999	723.679	80.008	19.993	103.164	20.032	4.120	0.504
1281.500	723.919	80.007	19.995	103.163	20.033	4.049	0.495
1282.000	724.154	80.007	19.996	103.162	20.032	4.073	0.485
1282.499	724.423	80.008	19.995	103.160	20.033	4.020	0.489
1282.999	724.695	80.012	19.995	103.159	20.033	4.022	0.522
1283.499	724.894	80.009	19.994	103.159	20.033	4.024	0.506
1283.999	725.123	80.006	19.995	103.158	20.033	4.001	0.449
1284.499	725.381	80.005	19.994	103.161	20.032	4.106	0.458
1284.999	725.657	80.011	19.994	103.158	20.038	3.621	0.511
1285.499	725.927	80.008	19.994	103.158	20.036	3.788	0.540
1285.999	726.100	80.008	19.994	103.160	20.032	4.075	0.494
1286.499	726.371	80.006	19.994	103.160	20.031	4.150	0.443
1286.999	726.626	80.007	19.995	103.158	20.029	4.345	0.485
1287.500	726.899	80.007	19.995	103.157	20.032	4.101	0.527
1288.000	727.137	80.010	19.995	103.156	20.033	3.983	0.519
1288.499	727.415	80.007	19.994	103.156	20.032	4.107	0.513
1288.999	727.668	80.008	19.995	103.160	20.034	3.927	0.524
1289.499	727.906	80.009	19.994	103.163	20.032	4.123	0.512
1290.000	728.146	80.007	19.994	103.168	20.035	3.874	0.485
1290.500	728.440	80.006	19.994	103.166	20.034	3.934	0.506
1291.000	728.687	80.006	19.995	103.160	20.034	3.953	0.537
1291.499	728.947	80.006	19.994	103.159	20.034	3.979	0.524
1292.000	729.218	80.005	19.995	103.158	20.030	4.255	0.519
1292.500	729.440	80.009	19.994	103.160	20.033	4.056	0.512
1292.999	729.703	80.009	19.993	103.165	20.035	3.900	0.489
1293.499	729.995	80.009	19.994	103.172	20.030	4.275	0.520
1293.999	730.252	80.008	19.995	103.172	20.034	3.953	0.552
1294.499	730.509	80.008	19.994	103.174	20.035	3.869	0.532
1294.999	730.777	80.007	19.995	103.175	20.032	4.090	0.519
1295.500	731.064	80.004	19.994	103.175	20.032	4.064	0.540
1296.000	731.306	80.005	19.995	103.173	20.030	4.223	0.542
1296.499	731.614	80.009	19.995	103.169	20.032	4.114	0.539
1296.999	731.842	80.005	19.996	103.165	20.035	3.839	0.543
1297.499	732.130	80.005	19.994	103.159	20.036	3.801	0.526
1297.999	732.398	80.009	19.994	103.156	20.034	3.912	0.536
1298.499	732.648	80.008	19.994	103.157	20.031	4.163	0.537
1298.999	732.921	80.008	19.994	103.160	20.031	4.206	0.521
1299.499	733.211	80.018	19.993	103.160	20.035	3.844	0.543
1300.000	733.480	80.024	19.992	103.165	20.033	4.018	0.561
1300.500	733.712	79.992	19.997	103.171	20.031	4.149	0.530
1300.999	733.990	79.998	19.995	103.167	20.033	4.035	0.506
1301.499	734.281	80.011	19.992	103.165	20.031	4.144	0.540
1301.999	734.526	79.999	19.995	103.171	20.032	4.114	0.552
1302.499	734.843	80.017	19.992	103.168	20.029	4.354	0.549
1302.999	735.100	80.007	19.994	103.167	20.032	4.077	0.568
1303.499	735.358	80.005	19.994	103.170	20.031	4.144	0.545
1303.999	735.625	80.007	19.995	103.170	20.031	4.204	0.520
1304.499	735.928	80.005	19.994	103.168	20.033	4.050	0.548
1304.999	736.202	80.006	19.994	103.168	20.029	4.315	0.573
1305.499	736.456	80.003	19.996	103.162	20.031	4.137	0.552
1305.999	736.725	80.008	19.994	103.157	20.035	3.890	0.525
1306.499	736.991	80.013	19.994	103.160	20.033	4.032	0.529
1306.999	737.278	80.003	19.994	103.160	20.031	4.197	0.544
1307.499	737.536	80.007	19.995	103.158	20.032	4.115	0.550
1307.999	737.836	80.007	19.993	103.162	20.032	4.113	0.552
1308.499	738.091	80.005	19.995	103.166	20.033	3.996	0.556
1308.999	738.370	80.010	19.994	103.163	20.033	4.032	0.544
1309.500	738.609	80.005	19.995	103.163	20.029	4.326	0.526
1310.000	738.921	80.013	19.993	103.167	20.031	4.198	0.534
1310.500	739.185	80.007	19.995	103.170	20.033	4.054	0.564
1311.000	739.431	80.013	19.994	103.172	20.030	4.230	0.543
1311.500	739.737	80.008	19.994	103.175	20.030	4.266	0.531
1311.999	740.011	80.006	19.997	103.176	20.030	4.281	0.566
1312.499	740.292	80.011	19.993	103.173	20.032	4.084	0.567
1312.999	740.567	80.011	19.995	103.167	20.030	4.259	0.555
1313.499	740.859	80.012	19.996	103.168	20.030	4.259	0.561
1313.999	741.123	80.005	19.994	103.164	20.031	4.197	0.562
1314.499	741.383	80.009	19.993	103.164	20.030	4.233	0.540
1314.999	741.651	80.009	19.995	103.168	20.031	4.141	0.526
1315.499	741.937	80.009	19.994	103.168	20.029	4.368	0.541
1315.999	742.219	80.008	19.994	103.161	20.033	3.993	0.561
1316.499	742.484	80.011	19.995	103.159	20.035	3.889	0.558
1316.999	742.783	80.009	19.995	103.152	20.029	4.337	0.556
1317.499	743.060	80.007	19.994	103.146	20.028	4.373	0.570
