Sample ID:	C:\MCC\MCC Cal\Test\Bravo_OSB_MCC_30K_min_211207_R1.txt
Sample Weight (mg):	4.53
Heating Rate (C/s):	0.5
Combustor Temp (C):	900
N2 Flow Rate (cc/min):	80
O2 Flow Rate (cc/min):	20
Calibration File:	C:\MCC\MCC Cal\Coeff1 JN10440_30_210304.txt.txt
T Correction Coefficients:	0	1.024463	0
Time Shift (s):	14
*
Time (s)	Temperature (C)	N2 flow rate (cc/min)	O2 flow rate (cc/min)	Flow Rate (cc/min)	Oxygen (%)	HRR (W/g)	Heating rate (C/s)
-0.001	108.517	80.015	19.997	103.072	19.951	0.122	0.049
0.499	108.496	80.016	19.996	103.079	19.954	-0.068	-0.019
0.999	108.508	80.011	19.996	103.083	19.947	0.402	-0.033
1.499	108.484	80.005	19.995	103.084	19.950	0.203	-0.011
1.999	108.467	80.014	19.997	103.080	19.954	-0.073	-0.027
2.499	108.494	80.009	19.997	103.074	19.953	-0.027	-0.015
2.999	108.491	80.014	19.997	103.073	19.956	-0.224	0.017
3.499	108.514	80.007	19.993	103.072	19.954	-0.072	0.022
3.999	108.524	80.014	19.995	103.077	19.949	0.228	0.026
4.499	108.502	80.002	19.996	103.087	19.947	0.428	0.010
4.999	108.514	80.014	19.995	103.092	19.953	-0.060	-0.011
5.499	108.492	80.011	19.996	103.094	19.951	0.108	-0.010
5.999	108.514	80.007	19.994	103.089	19.957	-0.325	-0.005
6.499	108.501	80.006	19.996	103.087	19.956	-0.207	0.005
6.999	108.499	80.007	19.993	103.083	19.952	0.029	-0.003
7.499	108.517	80.015	19.995	103.085	19.954	-0.091	0.001
7.999	108.519	80.009	19.995	103.086	19.951	0.089	0.018
8.499	108.494	80.010	19.994	103.091	19.958	-0.412	-0.002
8.999	108.503	80.007	19.994	103.093	19.951	0.134	-0.019
9.499	108.512	80.007	19.993	103.095	19.951	0.130	0.001
9.999	108.516	80.010	19.993	103.095	19.951	0.083	0.015
10.499	108.521	80.005	19.995	103.097	19.947	0.410	0.011
10.999	108.514	80.003	19.993	103.098	19.945	0.515	0.003
11.499	108.515	80.010	19.994	103.100	19.944	0.635	-0.004
11.999	108.528	80.009	19.994	103.101	19.948	0.327	0.004
12.499	108.517	80.007	19.995	103.101	19.947	0.395	0.008
12.999	108.537	80.006	19.995	103.101	19.948	0.298	0.006
13.499	108.531	80.011	19.993	103.105	19.947	0.389	0.011
13.999	108.560	80.007	19.993	103.113	19.946	0.457	0.018
14.500	108.552	80.007	19.994	103.120	19.944	0.587	0.022
15.000	108.552	80.007	19.993	103.129	19.944	0.602	0.007
15.499	108.591	80.009	19.995	103.136	19.943	0.717	0.016
15.999	108.561	80.016	19.993	103.140	19.944	0.620	0.024
16.500	108.612	80.011	19.993	103.142	19.942	0.738	0.015
17.000	108.634	80.011	19.994	103.148	19.940	0.895	0.047
17.499	108.634	80.004	19.994	103.156	19.939	0.995	0.048
17.999	108.609	80.009	19.994	103.161	19.937	1.075	-0.001
18.499	108.652	80.013	19.993	103.168	19.937	1.106	-0.004
19.000	108.692	80.008	19.994	103.175	19.935	1.267	0.051
19.500	108.691	80.011	19.992	103.179	19.932	1.485	0.061
19.999	108.700	80.009	19.995	103.182	19.934	1.324	0.024
20.499	108.713	80.009	19.994	103.191	19.934	1.303	0.015
20.999	108.730	80.008	19.995	103.198	19.929	1.650	0.026
21.499	108.763	80.010	19.992	103.204	19.931	1.510	0.040
21.999	108.838	80.010	19.993	103.212	19.928	1.722	0.079
22.499	108.826	80.012	19.995	103.223	19.922	2.202	0.086
22.999	108.868	80.007	19.993	103.231	19.925	1.968	0.047
23.499	108.892	80.008	19.993	103.234	19.930	1.600	0.048
23.999	108.934	80.005	19.994	103.240	19.924	2.014	0.066
24.499	108.983	80.015	19.992	103.244	19.926	1.912	0.078
24.999	109.010	80.010	19.994	103.245	19.926	1.891	0.083
25.499	109.039	80.006	19.994	103.247	19.924	2.015	0.066
26.000	109.093	80.008	19.995	103.248	19.923	2.077	0.070
26.500	109.139	80.012	19.994	103.245	19.925	1.974	0.092
26.999	109.182	80.008	19.993	103.241	19.923	2.089	0.094
27.499	109.250	80.008	19.993	103.233	19.925	1.998	0.100
27.999	109.277	80.013	19.994	103.231	19.924	2.019	0.103
28.499	109.305	79.998	19.995	103.234	19.927	1.808	0.074
28.999	109.375	80.003	19.995	103.232	19.922	2.180	0.076
29.500	109.414	80.007	19.995	103.231	19.921	2.273	0.104
30.000	109.469	80.007	19.994	103.234	19.925	1.967	0.102
30.499	109.492	80.004	19.995	103.227	19.923	2.091	0.086
30.999	109.566	80.006	19.995	103.219	19.924	2.052	0.088
31.499	109.655	80.007	19.995	103.222	19.923	2.114	0.130
31.999	109.709	80.006	19.994	103.227	19.931	1.568	0.153
32.499	109.768	80.006	19.994	103.232	19.918	2.453	0.128
32.999	109.847	80.013	19.993	103.239	19.919	2.409	0.125
33.499	109.864	80.003	19.995	103.249	19.921	2.283	0.117
33.999	109.940	80.008	19.994	103.252	19.921	2.219	0.095
34.500	109.990	80.007	19.995	103.257	19.922	2.203	0.109
35.000	110.037	80.009	19.994	103.256	19.917	2.542	0.111
35.499	110.108	80.007	19.996	103.260	19.917	2.531	0.108
35.999	110.158	80.007	19.995	103.258	19.913	2.848	0.119
36.500	110.271	80.007	19.995	103.264	19.922	2.186	0.142
37.000	110.374	80.012	19.994	103.270	19.920	2.302	0.189
37.499	110.416	80.009	19.994	103.278	19.916	2.626	0.180
37.999	110.475	80.009	19.995	103.283	19.914	2.752	0.123
38.499	110.566	80.002	19.995	103.290	19.916	2.570	0.126
38.999	110.668	80.004	19.997	103.286	19.917	2.551	0.172
39.499	110.750	80.012	19.993	103.284	19.913	2.801	0.189
39.999	110.809	80.007	19.995	103.286	19.917	2.568	0.162
40.499	110.926	80.005	19.994	103.285	19.918	2.483	0.158
40.999	111.030	80.009	19.994	103.285	19.922	2.200	0.198
41.499	111.117	80.007	19.993	103.289	19.916	2.584	0.206
41.999	111.218	80.009	19.994	103.293	19.913	2.828	0.190
42.499	111.284	80.008	19.995	103.291	19.914	2.733	0.177
42.999	111.326	80.007	19.993	103.291	19.910	3.028	0.137
43.499	111.415	80.009	19.994	103.290	19.909	3.123	0.120
43.999	111.545	80.008	19.995	103.293	19.910	3.030	0.175
44.499	111.632	80.006	19.996	103.293	19.911	2.956	0.218
44.999	111.748	80.006	19.995	103.291	19.911	2.995	0.210
45.499	111.863	80.008	19.995	103.291	19.909	3.105	0.217
45.999	111.946	80.011	19.996	103.293	19.908	3.156	0.214
46.499	112.052	80.006	19.994	103.293	19.909	3.127	0.193
46.999	112.139	80.008	19.994	103.293	19.908	3.189	0.191
47.499	112.255	80.008	19.995	103.295	19.909	3.129	0.198
47.999	112.380	80.009	19.996	103.301	19.911	2.951	0.222
48.499	112.480	80.011	19.995	103.306	19.912	2.908	0.232
48.999	112.586	80.006	19.993	103.315	19.907	3.251	0.215
49.499	112.696	80.009	19.995	103.321	19.901	3.638	0.212
49.999	112.810	80.003	19.994	103.328	19.909	3.111	0.220
50.499	112.921	80.014	19.995	103.329	19.906	3.315	0.224
50.999	113.043	80.007	19.995	103.331	19.909	3.103	0.229
51.499	113.145	80.008	19.995	103.329	19.906	3.297	0.229
51.999	113.277	80.008	19.995	103.328	19.907	3.272	0.229
52.499	113.410	80.008	19.995	103.328	19.908	3.175	0.249
52.999	113.522	80.006	19.995	103.329	19.903	3.501	0.255
53.499	113.647	80.005	19.995	103.328	19.901	3.695	0.241
53.999	113.783	80.008	19.995	103.329	19.909	3.107	0.249
54.499	113.940	80.005	19.996	103.329	19.905	3.357	0.277
55.000	114.062	80.005	19.995	103.329	19.903	3.528	0.286
55.500	114.187	80.011	19.995	103.332	19.904	3.435	0.263
55.999	114.303	80.007	19.994	103.335	19.905	3.377	0.244
56.499	114.494	80.009	19.995	103.335	19.904	3.449	0.274
56.999	114.597	80.007	19.993	103.337	19.906	3.311	0.301
57.499	114.730	80.006	19.996	103.342	19.902	3.594	0.265
57.999	114.851	80.011	19.996	103.341	19.905	3.410	0.245
58.499	115.019	80.006	19.996	103.340	19.908	3.197	0.272
58.999	115.152	80.008	19.996	103.340	19.899	3.784	0.295
59.499	115.310	80.006	19.995	103.339	19.898	3.922	0.296
60.000	115.411	80.008	19.995	103.336	19.903	3.559	0.275
60.500	115.573	80.006	19.995	103.334	19.902	3.592	0.260
60.999	115.726	80.004	19.995	103.332	19.902	3.617	0.289
61.499	115.885	80.005	19.996	103.331	19.900	3.741	0.314
61.999	116.048	80.006	19.995	103.331	19.904	3.476	0.317
62.499	116.187	80.003	19.997	103.330	19.902	3.602	0.312
62.999	116.338	80.007	19.995	103.330	19.904	3.449	0.296
63.500	116.531	80.008	19.995	103.331	19.905	3.381	0.317
64.000	116.708	80.007	19.995	103.331	19.903	3.556	0.357
64.499	116.798	80.007	19.996	103.332	19.905	3.410	0.318
64.999	116.982	80.007	19.996	103.335	19.908	3.209	0.271
65.499	117.183	80.007	19.997	103.336	19.907	3.276	0.330
65.999	117.327	80.005	19.997	103.335	19.907	3.239	0.364
66.499	117.525	80.004	19.996	103.336	19.904	3.470	0.343
66.999	117.645	80.006	19.996	103.337	19.903	3.561	0.330
67.499	117.802	80.006	19.996	103.334	19.901	3.666	0.298
67.999	117.997	80.007	19.996	103.334	19.901	3.642	0.314
68.499	118.144	80.005	19.996	103.336	19.901	3.662	0.347
68.999	118.351	80.009	19.997	103.335	19.903	3.538	0.348
69.499	118.543	80.006	19.996	103.334	19.907	3.239	0.376
69.999	118.722	80.007	19.996	103.335	19.902	3.573	0.385
70.499	118.881	80.007	19.997	103.336	19.904	3.454	0.355
71.000	119.034	80.006	19.996	103.336	19.903	3.530	0.325
71.500	119.210	80.008	19.993	103.335	19.905	3.385	0.320
72.000	119.379	80.008	19.996	103.335	19.901	3.699	0.337
72.499	119.554	80.007	19.996	103.336	19.905	3.369	0.345
72.999	119.736	80.003	19.996	103.339	19.904	3.439	0.350
73.499	119.891	80.006	19.996	103.342	19.905	3.379	0.347
73.999	120.065	80.007	19.997	103.349	19.903	3.503	0.333
74.499	120.254	80.008	19.994	103.353	19.903	3.509	0.346
74.999	120.426	80.007	19.994	103.350	19.902	3.610	0.362
75.499	120.615	80.009	19.994	103.349	19.906	3.331	0.361
75.999	120.817	80.006	19.995	103.347	19.900	3.730	0.376
76.499	121.011	80.007	19.995	103.344	19.899	3.794	0.393
76.999	121.251	80.008	19.995	103.343	19.902	3.614	0.415
77.499	121.379	80.009	19.995	103.344	19.899	3.813	0.401
77.999	121.586	80.009	19.994	103.343	19.901	3.676	0.352
78.499	121.755	80.009	19.994	103.341	19.907	3.240	0.355
78.999	122.016	80.009	19.995	103.338	19.902	3.627	0.403
79.499	122.183	80.009	19.994	103.335	19.906	3.342	0.429
79.999	122.395	80.010	19.994	103.336	19.902	3.612	0.403
80.499	122.563	80.009	19.994	103.335	19.907	3.245	0.380
80.999	122.740	80.008	19.994	103.336	19.902	3.586	0.363
81.499	122.905	80.010	19.994	103.337	19.905	3.412	0.343
81.999	123.119	80.008	19.995	103.338	19.907	3.253	0.361
82.499	123.318	80.009	19.994	103.337	19.905	3.363	0.396
83.000	123.540	80.007	19.995	103.338	19.905	3.406	0.417
83.500	123.706	80.008	19.995	103.339	19.907	3.274	0.404
83.999	123.911	80.009	19.994	103.338	19.905	3.408	0.379
84.499	124.093	80.009	19.995	103.337	19.906	3.326	0.379
84.999	124.295	80.009	19.995	103.338	19.902	3.611	0.386
85.499	124.509	80.009	19.995	103.342	19.904	3.489	0.400
85.999	124.713	80.008	19.994	103.344	19.908	3.183	0.417
86.499	124.928	80.008	19.995	103.344	19.901	3.677	0.419
87.000	125.119	80.008	19.995	103.343	19.908	3.197	0.412
87.500	125.336	80.008	19.994	103.345	19.908	3.181	0.407
88.000	125.536	80.008	19.994	103.342	19.907	3.218	0.413
88.500	125.705	80.007	19.994	103.342	19.905	3.373	0.393
89.000	125.942	80.009	19.994	103.347	19.907	3.259	0.387
89.500	126.124	80.008	19.995	103.349	19.899	3.834	0.412
89.999	126.363	80.008	19.993	103.346	19.905	3.398	0.420
90.499	126.553	80.006	19.994	103.345	19.906	3.317	0.425
90.999	126.743	80.006	19.995	103.345	19.908	3.154	0.405
91.499	126.965	80.009	19.994	103.341	19.903	3.561	0.396
91.999	127.174	80.006	19.994	103.343	19.907	3.253	0.421
92.499	127.413	80.004	19.995	103.342	19.905	3.408	0.439
92.999	127.639	80.008	19.995	103.340	19.906	3.338	0.456
93.499	127.799	80.008	19.994	103.338	19.907	3.212	0.426
93.999	128.021	80.007	19.996	103.336	19.907	3.227	0.384
94.499	128.261	80.008	19.993	103.333	19.908	3.156	0.422
94.999	128.392	80.009	19.994	103.333	19.905	3.371	0.417
95.499	128.650	80.008	19.994	103.334	19.908	3.162	0.381
95.999	128.863	80.008	19.995	103.334	19.906	3.344	0.430
96.499	129.059	80.009	19.994	103.335	19.903	3.505	0.440
96.999	129.286	80.006	19.994	103.338	19.906	3.317	0.416
97.499	129.508	80.008	19.993	103.338	19.901	3.693	0.436
97.999	129.743	80.008	19.993	103.338	19.906	3.352	0.453
98.499	129.954	80.010	19.994	103.339	19.907	3.228	0.452
98.999	130.157	80.007	19.995	103.338	19.901	3.704	0.430
99.499	130.393	80.008	19.994	103.335	19.904	3.474	0.427
99.999	130.592	80.009	19.993	103.335	19.905	3.359	0.437
100.499	130.817	80.010	19.993	103.335	19.908	3.179	0.429
100.999	131.038	80.010	19.994	103.336	19.906	3.297	0.435
101.499	131.247	80.009	19.995	103.338	19.906	3.348	0.438
101.999	131.471	80.009	19.995	103.343	19.906	3.299	0.431
102.499	131.681	80.011	19.994	103.342	19.905	3.400	0.434
103.000	131.931	80.007	19.994	103.341	19.901	3.666	0.447
103.500	132.105	80.009	19.994	103.340	19.901	3.642	0.442
103.999	132.327	80.009	19.994	103.336	19.904	3.482	0.410
104.499	132.544	80.010	19.994	103.331	19.903	3.513	0.418
104.999	132.762	80.010	19.993	103.332	19.902	3.613	0.437
105.499	133.021	80.011	19.994	103.331	19.904	3.487	0.456
105.999	133.230	80.009	19.995	103.332	19.900	3.745	0.472
106.500	133.439	80.009	19.993	103.335	19.905	3.388	0.443
107.000	133.653	80.011	19.994	103.339	19.904	3.485	0.421
107.500	133.876	80.011	19.994	103.340	19.900	3.741	0.430
108.000	134.077	80.009	19.994	103.343	19.904	3.474	0.430
108.499	134.295	80.007	19.993	103.342	19.904	3.456	0.421
108.999	134.530	80.008	19.994	103.338	19.902	3.577	0.435
109.499	134.762	80.009	19.994	103.334	19.904	3.489	0.460
109.999	135.008	80.013	19.994	103.333	19.902	3.569	0.473
110.499	135.195	80.006	19.995	103.332	19.905	3.420	0.455
111.000	135.442	80.009	19.995	103.332	19.901	3.658	0.433
111.500	135.631	80.010	19.994	103.332	19.906	3.342	0.435
111.999	135.892	80.009	19.994	103.332	19.904	3.452	0.443
112.499	136.148	80.015	19.993	103.331	19.902	3.596	0.484
112.999	136.319	80.008	19.993	103.332	19.902	3.573	0.472
113.499	136.557	80.006	19.995	103.332	19.906	3.342	0.418
113.999	136.786	80.009	19.994	103.331	19.903	3.532	0.438
114.499	137.028	80.007	19.993	103.333	19.906	3.338	0.469
114.999	137.280	80.010	19.994	103.339	19.906	3.330	0.482
115.499	137.494	80.004	19.994	103.338	19.904	3.495	0.480
115.999	137.708	80.008	19.995	103.337	19.901	3.642	0.447
116.499	137.931	80.003	19.994	103.339	19.903	3.512	0.433
117.000	138.159	80.008	19.992	103.337	19.900	3.766	0.444
117.500	138.379	80.008	19.994	103.331	19.909	3.128	0.449
117.999	138.603	80.006	19.995	103.332	19.905	3.355	0.446
118.499	138.831	80.005	19.995	103.337	19.905	3.404	0.448
118.999	139.097	80.007	19.994	103.336	19.904	3.481	0.473
119.499	139.325	80.007	19.995	103.336	19.903	3.565	0.493
119.999	139.561	80.008	19.996	103.339	19.903	3.555	0.479
120.499	139.767	80.006	19.995	103.339	19.902	3.596	0.453
120.999	140.020	80.007	19.994	103.335	19.907	3.270	0.451
121.499	140.246	80.007	19.995	103.337	19.904	3.472	0.469
121.999	140.498	80.005	19.996	103.339	19.903	3.499	0.479
122.500	140.712	80.006	19.995	103.337	19.902	3.605	0.472
123.000	140.967	80.007	19.994	103.335	19.905	3.415	0.468
123.499	141.226	80.006	19.995	103.335	19.904	3.466	0.491
123.999	141.454	80.008	19.994	103.335	19.904	3.454	0.501
124.500	141.689	80.005	19.996	103.334	19.907	3.280	0.475
125.000	141.875	80.006	19.994	103.339	19.905	3.367	0.442
125.500	142.141	80.005	19.995	103.340	19.903	3.515	0.436
126.000	142.399	80.007	19.995	103.339	19.906	3.319	0.488
126.500	142.573	80.006	19.995	103.337	19.899	3.826	0.478
126.999	142.811	80.007	19.996	103.335	19.905	3.402	0.422
127.499	143.085	80.006	19.994	103.328	19.904	3.464	0.462
127.999	143.337	80.006	19.996	103.328	19.905	3.353	0.519
128.500	143.576	80.007	19.996	103.328	19.907	3.264	0.509
129.000	143.804	80.007	19.994	103.329	19.907	3.262	0.479
129.499	144.052	80.006	19.995	103.329	19.904	3.479	0.472
129.999	144.275	80.008	19.995	103.330	19.905	3.412	0.474
130.499	144.520	80.007	19.994	103.334	19.904	3.437	0.470
130.999	144.748	80.005	19.994	103.340	19.904	3.481	0.471
131.499	145.046	80.006	19.996	103.341	19.905	3.357	0.499
132.000	145.274	80.008	19.995	103.341	19.911	2.933	0.526
132.500	145.499	80.009	19.996	103.342	19.905	3.355	0.489
132.999	145.753	80.008	19.995	103.338	19.903	3.516	0.466
133.499	145.982	80.007	19.995	103.333	19.900	3.747	0.481
133.999	146.208	80.007	19.995	103.331	19.904	3.449	0.469
134.499	146.450	80.006	19.995	103.332	19.903	3.528	0.461
134.999	146.700	80.009	19.994	103.334	19.904	3.483	0.480
135.499	146.887	80.002	19.996	103.337	19.902	3.611	0.465
135.999	147.159	80.001	19.997	103.339	19.904	3.482	0.448
136.500	147.408	80.008	19.995	103.339	19.906	3.303	0.490
137.000	147.624	79.999	19.995	103.337	19.905	3.398	0.493
137.500	147.879	80.007	19.995	103.333	19.907	3.249	0.468
138.000	148.163	80.006	19.997	103.330	19.905	3.354	0.505
138.499	148.395	80.005	19.994	103.328	19.906	3.346	0.528
138.999	148.626	80.009	19.995	103.329	19.905	3.414	0.490
139.499	148.881	80.007	19.995	103.329	19.904	3.429	0.474
139.999	149.129	80.008	19.995	103.331	19.908	3.185	0.494
140.499	149.340	80.007	19.993	103.331	19.902	3.594	0.481
141.000	149.627	80.007	19.995	103.332	19.906	3.348	0.479
141.500	149.855	80.008	19.995	103.332	19.905	3.361	0.507
142.000	150.108	80.009	19.994	103.333	19.906	3.348	0.498
142.500	150.351	80.006	19.995	103.334	19.907	3.225	0.488
142.999	150.561	80.006	19.995	103.334	19.907	3.262	0.474
143.499	150.835	80.008	19.995	103.333	19.910	3.026	0.468
143.999	151.107	80.006	19.995	103.333	19.909	3.115	0.515
144.499	151.322	80.007	19.995	103.334	19.908	3.189	0.517
144.999	151.544	80.007	19.995	103.334	19.908	3.189	0.462
145.499	151.815	80.006	19.994	103.335	19.907	3.278	0.464
145.999	152.025	80.007	19.995	103.335	19.907	3.239	0.487
146.499	152.247	80.008	19.994	103.336	19.913	2.813	0.457
146.999	152.507	80.008	19.994	103.336	19.907	3.272	0.457
147.499	152.757	80.005	19.995	103.335	19.905	3.365	0.496
147.999	153.022	80.005	19.994	103.333	19.904	3.466	0.513
148.499	153.243	80.005	19.995	103.334	19.907	3.276	0.501
148.999	153.452	80.005	19.995	103.333	19.905	3.375	0.458
149.499	153.706	80.007	19.995	103.333	19.905	3.390	0.446
149.999	153.946	80.008	19.995	103.332	19.908	3.177	0.478
150.499	154.202	80.006	19.995	103.333	19.909	3.111	0.495
150.999	154.460	80.006	19.996	103.333	19.907	3.212	0.505
151.499	154.703	80.007	19.994	103.331	19.909	3.129	0.508
151.999	154.951	80.007	19.996	103.330	19.912	2.888	0.496
152.500	155.201	80.004	19.997	103.330	19.909	3.136	0.494
153.000	155.397	80.005	19.994	103.329	19.906	3.309	0.472
153.499	155.665	80.006	19.994	103.330	19.910	3.055	0.455
153.999	155.900	80.007	19.995	103.332	19.909	3.115	0.484
154.499	156.123	80.002	19.994	103.333	19.911	2.944	0.481
154.999	156.415	80.006	19.994	103.332	19.911	2.995	0.486
155.499	156.670	80.006	19.995	103.333	19.908	3.146	0.531
155.999	156.872	80.006	19.996	103.333	19.907	3.218	0.502
156.499	157.128	80.006	19.995	103.333	19.909	3.115	0.457
156.999	157.391	80.008	19.995	103.333	19.906	3.313	0.488
157.499	157.654	80.007	19.995	103.334	19.908	3.173	0.523
157.999	157.873	80.006	19.994	103.333	19.904	3.477	0.505
158.499	158.151	80.008	19.995	103.333	19.908	3.191	0.489
158.999	158.393	80.003	19.995	103.334	19.905	3.408	0.508
159.500	158.658	80.008	19.994	103.333	19.906	3.297	0.514
160.000	158.887	80.004	19.996	103.333	19.905	3.357	0.501
160.499	159.145	80.007	19.995	103.333	19.910	3.024	0.490
160.999	159.385	80.008	19.996	103.332	19.909	3.086	0.493
161.499	159.620	80.007	19.995	103.330	19.909	3.125	0.487
161.999	159.873	80.006	19.995	103.330	19.910	3.034	0.481
162.499	160.095	80.010	19.993	103.329	19.905	3.386	0.482
162.999	160.375	80.005	19.995	103.330	19.906	3.311	0.489
163.500	160.608	80.007	19.996	103.331	19.913	2.805	0.507
164.000	160.873	80.007	19.994	103.332	19.907	3.239	0.505
164.499	161.092	80.005	19.994	103.333	19.908	3.191	0.491
164.999	161.354	80.007	19.994	103.334	19.907	3.225	0.483
165.499	161.593	80.006	19.995	103.333	19.909	3.109	0.491
165.999	161.886	80.006	19.996	103.332	19.912	2.923	0.516
166.499	162.103	80.007	19.995	103.332	19.906	3.309	0.521
166.999	162.378	80.007	19.995	103.327	19.907	3.253	0.501
167.499	162.625	80.007	19.994	103.327	19.906	3.330	0.507
167.999	162.840	80.007	19.994	103.327	19.907	3.233	0.492
168.499	163.104	80.006	19.994	103.327	19.908	3.180	0.470
168.999	163.398	80.011	19.994	103.327	19.904	3.452	0.518
169.499	163.617	80.006	19.995	103.329	19.905	3.378	0.535
169.999	163.860	80.006	19.995	103.330	19.908	3.140	0.487
170.499	164.044	80.008	19.995	103.329	19.911	2.985	0.445
170.999	164.328	80.008	19.994	103.329	19.909	3.126	0.448
171.500	164.623	80.006	19.996	103.329	19.908	3.175	0.523
172.000	164.845	80.007	19.993	103.330	19.912	2.919	0.548
172.500	165.123	80.006	19.996	103.330	19.906	3.301	0.509
173.000	165.374	80.008	19.993	103.330	19.911	2.962	0.515
173.499	165.612	80.006	19.994	103.329	19.909	3.126	0.509
174.000	165.853	80.006	19.995	103.329	19.911	2.948	0.484
174.500	166.141	80.007	19.995	103.329	19.910	3.022	0.504
174.999	166.364	80.005	19.995	103.329	19.908	3.189	0.520
175.499	166.638	80.010	19.994	103.329	19.905	3.380	0.504
175.999	166.866	80.007	19.995	103.329	19.908	3.177	0.500
176.499	167.130	80.005	19.994	103.329	19.911	2.989	0.497
176.999	167.344	80.007	19.993	103.329	19.911	2.954	0.485
177.499	167.652	80.006	19.994	103.329	19.910	3.056	0.500
177.999	167.899	80.008	19.995	103.328	19.909	3.111	0.539
178.500	168.114	80.008	19.994	103.324	19.904	3.440	0.509
179.000	168.383	80.007	19.996	103.319	19.905	3.353	0.473
179.499	168.629	80.009	19.996	103.317	19.909	3.091	0.499
179.999	168.891	80.006	19.994	103.314	19.908	3.200	0.512
180.499	169.123	80.008	19.994	103.312	19.915	2.679	0.501
180.999	169.392	80.010	19.995	103.317	19.912	2.911	0.497
181.499	169.591	80.010	19.994	103.322	19.915	2.675	0.485
181.999	169.924	80.009	19.994	103.324	19.913	2.791	0.500
182.499	170.124	80.007	19.993	103.328	19.908	3.188	0.532
182.999	170.393	80.009	19.994	103.326	19.911	2.929	0.501
183.499	170.606	80.007	19.995	103.322	19.912	2.913	0.476
183.999	170.903	80.007	19.995	103.322	19.911	2.995	0.496
184.499	171.133	80.012	19.993	103.322	19.910	3.051	0.518
185.000	171.460	80.010	19.995	103.321	19.912	2.874	0.542
185.500	171.654	80.003	19.994	103.326	19.910	3.000	0.539
185.999	171.894	80.009	19.994	103.329	19.910	3.039	0.477
186.499	172.103	80.009	19.994	103.328	19.914	2.773	0.442
186.999	172.403	80.009	19.992	103.328	19.914	2.744	0.479
187.499	172.665	79.999	19.993	103.329	19.913	2.805	0.535
187.999	172.912	80.006	19.995	103.321	19.914	2.758	0.535
188.499	173.137	80.010	19.994	103.315	19.911	2.989	0.491
188.999	173.424	80.020	19.993	103.313	19.911	2.995	0.492
189.500	173.657	80.005	19.994	103.313	19.909	3.099	0.516
190.000	173.937	80.015	19.993	103.310	19.911	2.991	0.517
190.499	174.176	80.009	19.995	103.317	19.914	2.725	0.516
190.999	174.419	80.009	19.994	103.320	19.914	2.747	0.500
191.499	174.672	80.009	19.994	103.320	19.912	2.869	0.489
191.999	174.916	80.008	19.995	103.315	19.915	2.669	0.497
192.499	175.182	80.011	19.994	103.314	19.911	2.933	0.503
192.999	175.404	80.006	19.995	103.314	19.914	2.777	0.499
193.499	175.658	80.008	19.993	103.317	19.913	2.836	0.482
194.000	175.926	80.007	19.994	103.320	19.910	3.022	0.499
194.500	176.170	80.013	19.993	103.324	19.912	2.905	0.517
194.999	176.454	80.007	19.993	103.328	19.910	3.020	0.521
195.499	176.667	80.007	19.994	103.321	19.915	2.675	0.512
195.999	176.941	80.007	19.994	103.318	19.915	2.675	0.492
196.499	177.152	80.005	19.995	103.315	19.915	2.704	0.486
196.999	177.469	80.006	19.993	103.314	19.910	3.053	0.507
197.499	177.685	80.007	19.994	103.312	19.916	2.620	0.531
197.999	177.910	80.007	19.994	103.318	19.916	2.611	0.487
198.499	178.196	80.007	19.994	103.323	19.916	2.576	0.475
199.000	178.451	80.005	19.994	103.325	19.911	2.981	0.526
199.500	178.679	80.005	19.994	103.325	19.916	2.607	0.512
199.999	178.938	80.008	19.994	103.326	19.914	2.723	0.485
200.499	179.218	80.009	19.994	103.326	19.910	3.000	0.514
201.000	179.386	80.006	19.995	103.326	19.914	2.740	0.494
201.500	179.650	80.005	19.995	103.325	19.913	2.843	0.440
201.999	179.930	80.006	19.995	103.324	19.914	2.759	0.488
202.499	180.179	80.006	19.994	103.323	19.915	2.650	0.537
202.999	180.410	80.006	19.994	103.325	19.912	2.921	0.504
203.499	180.659	80.008	19.993	103.323	19.913	2.834	0.479
203.999	180.949	80.008	19.994	103.319	19.914	2.735	0.510
204.499	181.160	80.008	19.993	103.318	19.910	3.008	0.520
204.999	181.447	80.004	19.993	103.315	19.912	2.912	0.500
205.499	181.689	80.006	19.992	103.314	19.916	2.600	0.513
206.000	181.928	80.007	19.995	103.315	19.913	2.854	0.505
206.500	182.189	80.007	19.994	103.319	19.911	2.963	0.490
207.000	182.461	80.006	19.993	103.319	19.914	2.745	0.517
207.499	182.630	80.005	19.993	103.322	19.908	3.204	0.487
207.999	182.932	80.005	19.995	103.317	19.912	2.890	0.456
208.499	183.181	80.006	19.993	103.316	19.909	3.074	0.511
208.999	183.410	80.005	19.993	103.318	19.912	2.897	0.515
209.499	183.640	80.008	19.994	103.316	19.910	3.048	0.469
209.999	183.910	80.008	19.994	103.316	19.912	2.870	0.479
210.499	184.171	80.005	19.993	103.316	19.909	3.134	0.515
210.999	184.411	80.006	19.993	103.310	19.906	3.322	0.516
211.499	184.655	80.008	19.995	103.305	19.908	3.171	0.493
211.999	184.923	80.004	19.995	103.312	19.909	3.072	0.498
212.499	185.169	80.007	19.994	103.293	19.911	2.938	0.513
212.999	185.442	80.009	19.994	103.276	19.903	3.533	0.517
213.499	185.695	80.006	19.993	103.264	19.910	3.041	0.522
213.999	185.925	80.007	19.995	103.260	19.906	3.287	0.504
214.499	186.180	80.010	19.994	103.253	19.913	2.845	0.484
214.999	186.432	80.010	19.994	103.272	19.908	3.157	0.496
215.499	186.731	80.008	19.994	103.315	19.911	2.926	0.529
216.000	186.961	80.009	19.993	103.351	19.909	3.112	0.540
216.500	187.209	80.006	19.993	103.365	19.912	2.868	0.503
216.999	187.441	80.008	19.994	103.369	19.910	3.035	0.479
217.499	187.703	80.009	19.994	103.367	19.905	3.357	0.487
217.999	187.925	80.003	19.995	103.341	19.912	2.924	0.489
218.499	188.192	80.006	19.994	103.317	19.908	3.149	0.487
218.999	188.462	80.007	19.994	103.309	19.909	3.097	0.513
219.499	188.677	80.006	19.994	103.305	19.908	3.147	0.511
219.999	188.918	80.005	19.995	103.306	19.911	2.961	0.471
220.499	189.166	80.007	19.994	103.307	19.905	3.391	0.473
220.999	189.419	80.006	19.994	103.310	19.911	2.961	0.495
221.499	189.698	80.005	19.994	103.312	19.913	2.833	0.516
221.999	189.929	80.008	19.996	103.316	19.910	2.996	0.520
222.499	190.195	80.008	19.993	103.319	19.914	2.771	0.503
222.999	190.434	80.005	19.995	103.318	19.915	2.645	0.501
223.499	190.650	80.005	19.995	103.319	19.911	2.977	0.480
223.999	190.869	80.006	19.995	103.318	19.908	3.153	0.445
224.500	191.151	80.005	19.995	103.315	19.916	2.612	0.468
225.000	191.397	80.005	19.994	103.308	19.917	2.508	0.514
225.499	191.683	80.005	19.995	103.306	19.914	2.761	0.530
225.999	191.889	80.006	19.994	103.304	19.911	2.986	0.512
226.499	192.113	80.006	19.993	103.301	19.913	2.837	0.461
227.000	192.363	80.005	19.993	103.305	19.911	2.982	0.452
227.500	192.608	80.005	19.994	103.306	19.912	2.924	0.485
228.000	192.879	80.006	19.991	103.307	19.916	2.624	0.506
228.500	193.116	80.005	19.994	103.312	19.914	2.769	0.512
228.999	193.364	80.005	19.995	103.311	19.914	2.773	0.496
229.499	193.628	80.006	19.995	103.307	19.912	2.914	0.498
229.999	193.879	80.006	19.995	103.308	19.914	2.748	0.514
230.499	194.116	80.006	19.994	103.309	19.911	2.984	0.501
230.999	194.378	80.006	19.995	103.303	19.919	2.383	0.493
231.499	194.638	80.005	19.994	103.303	19.913	2.804	0.511
231.999	194.840	80.010	19.994	103.303	19.918	2.436	0.493
232.499	195.064	80.005	19.995	103.302	19.913	2.837	0.444
232.999	195.322	80.005	19.996	103.303	19.913	2.784	0.454
233.499	195.632	80.006	19.995	103.303	19.915	2.643	0.525
234.000	195.861	80.004	19.996	103.302	19.915	2.668	0.554
234.500	196.117	80.006	19.994	103.303	19.913	2.796	0.512
234.999	196.364	80.006	19.994	103.304	19.910	3.054	0.494
235.499	196.580	80.006	19.994	103.300	19.911	2.973	0.483
235.999	196.807	80.003	19.995	103.300	19.914	2.779	0.453
236.499	197.065	80.008	19.994	103.298	19.915	2.651	0.464
236.999	197.357	80.003	19.997	103.299	19.912	2.903	0.517
237.499	197.542	80.005	19.997	103.297	19.911	2.969	0.513
237.999	197.837	80.010	19.994	103.296	19.912	2.860	0.479
238.499	198.061	80.008	19.996	103.296	19.913	2.827	0.500
238.999	198.373	80.008	19.994	103.298	19.912	2.914	0.528
239.499	198.568	80.006	19.995	103.294	19.911	2.947	0.522
239.999	198.798	80.015	19.994	103.294	19.911	2.969	0.466
240.499	199.097	80.007	19.993	103.296	19.909	3.120	0.477
241.000	199.295	80.007	19.995	103.297	19.912	2.897	0.513
241.500	199.594	80.011	19.993	103.297	19.910	3.033	0.497
242.000	199.812	80.009	19.995	103.297	19.912	2.889	0.507
242.499	200.075	80.008	19.994	103.299	19.905	3.362	0.499
242.999	200.331	80.006	19.996	103.296	19.915	2.701	0.500
243.499	200.520	80.003	19.995	103.293	19.910	3.064	0.482
243.999	200.807	80.004	19.995	103.293	19.913	2.835	0.460
244.499	201.084	80.009	19.995	103.296	19.908	3.166	0.520
244.999	201.318	80.009	19.995	103.299	19.908	3.199	0.537
245.499	201.541	80.006	19.996	103.301	19.907	3.240	0.484
246.000	201.792	80.006	19.995	103.303	19.910	3.056	0.466
246.500	202.066	80.007	19.995	103.303	19.911	2.986	0.499
246.999	202.341	80.010	19.993	103.300	19.915	2.674	0.537
247.500	202.533	80.010	19.994	103.295	19.908	3.168	0.508
248.000	202.798	80.008	19.994	103.294	19.908	3.176	0.462
248.500	203.047	80.007	19.994	103.292	19.910	3.066	0.485
249.000	203.268	80.011	19.995	103.292	19.909	3.085	0.492
249.500	203.481	80.009	19.994	103.293	19.910	3.050	0.452
249.999	203.797	80.003	19.996	103.296	19.910	3.021	0.481
250.499	204.001	80.007	19.996	103.300	19.908	3.209	0.524
250.999	204.228	80.007	19.994	103.303	19.910	3.031	0.475
251.499	204.515	80.007	19.996	103.306	19.905	3.366	0.472
251.999	204.698	80.008	19.995	103.305	19.909	3.110	0.492
252.499	204.985	80.006	19.995	103.301	19.904	3.437	0.471
253.000	205.224	80.009	19.995	103.299	19.907	3.234	0.498
253.500	205.497	80.008	19.993	103.297	19.907	3.257	0.519
253.999	205.831	80.008	19.994	103.296	19.907	3.253	0.560
254.500	205.914	80.011	19.996	103.297	19.909	3.131	0.512
255.000	206.368	80.004	19.996	103.299	19.905	3.416	0.477
255.499	206.472	80.007	19.995	103.296	19.904	3.492	0.547
255.999	206.685	80.005	19.995	103.301	19.906	3.327	0.437
256.500	207.045	80.004	19.995	103.302	19.913	2.810	0.445
257.000	207.424	80.008	19.997	103.305	19.906	3.284	0.656
257.500	207.625	80.009	19.995	103.306	19.899	3.792	0.659
258.000	207.723	80.006	19.995	103.307	19.902	3.587	0.439
258.500	208.033	80.007	19.997	103.303	19.907	3.224	0.353
258.999	208.121	80.007	19.995	103.303	19.906	3.298	0.403
259.499	208.327	80.008	19.996	103.298	19.904	3.467	0.346
259.999	208.917	80.006	19.995	103.297	19.902	3.612	0.545
260.499	209.118	80.009	19.994	103.298	19.902	3.581	0.794
260.999	209.405	80.009	19.995	103.297	19.901	3.664	0.640
261.499	209.573	80.008	19.995	103.296	19.900	3.740	0.471
261.999	209.612	80.008	19.996	103.294	19.898	3.895	0.331
262.499	209.974	80.003	19.996	103.296	19.903	3.529	0.304
263.000	210.194	80.004	19.996	103.294	19.899	3.845	0.491
263.500	210.442	80.010	19.995	103.292	19.901	3.691	0.525
264.000	210.858	80.010	19.995	103.291	19.900	3.711	0.566
264.500	210.882	80.009	19.995	103.293	19.906	3.346	0.552
264.999	211.140	80.008	19.994	103.290	19.906	3.339	0.361
265.499	211.438	80.012	19.995	103.291	19.903	3.500	0.419
265.999	211.702	80.009	19.994	103.291	19.901	3.668	0.559
266.499	211.905	80.009	19.995	103.296	19.903	3.527	0.514
266.999	212.197	80.010	19.994	103.295	19.899	3.825	0.481
267.499	212.454	80.009	19.994	103.295	19.903	3.535	0.522
267.999	212.641	80.010	19.993	103.295	19.900	3.757	0.496
268.499	212.907	80.010	19.994	103.296	19.903	3.500	0.449
268.999	213.176	80.012	19.993	103.292	19.902	3.629	0.495
269.499	213.402	80.009	19.994	103.293	19.900	3.722	0.515
269.999	213.634	80.010	19.994	103.295	19.904	3.432	0.477
270.499	213.896	80.011	19.995	103.300	19.900	3.730	0.476
270.999	214.085	80.009	19.995	103.302	19.903	3.529	0.472
271.499	214.371	80.010	19.995	103.301	19.900	3.766	0.463
272.000	214.601	80.008	19.994	103.302	19.901	3.692	0.496
272.500	214.853	80.006	19.998	103.302	19.898	3.857	0.499
273.000	215.125	80.011	19.991	103.297	19.899	3.835	0.502
273.499	215.343	80.009	19.992	103.297	19.902	3.576	0.507
273.999	215.577	80.008	19.994	103.299	19.902	3.622	0.472
274.499	215.797	80.012	19.994	103.296	19.896	3.998	0.454
275.000	216.068	80.011	19.993	103.295	19.899	3.843	0.472
275.500	216.335	80.008	19.995	103.296	19.899	3.808	0.514
276.000	216.568	80.007	19.995	103.295	19.895	4.116	0.519
276.499	216.785	80.007	19.994	103.297	19.893	4.275	0.475
276.999	217.042	80.007	19.995	103.299	19.899	3.827	0.462
277.499	217.302	80.006	19.991	103.301	19.895	4.100	0.495
278.000	217.564	80.005	19.995	103.302	19.894	4.168	0.520
278.500	217.824	80.008	19.992	103.301	19.891	4.379	0.522
278.999	218.066	80.008	19.995	103.299	19.894	4.147	0.512
279.499	218.291	80.006	19.994	103.298	19.899	3.829	0.485
279.999	218.578	80.009	19.989	103.296	19.894	4.147	0.489
280.499	218.791	80.008	19.996	103.295	19.893	4.217	0.506
280.999	219.053	80.006	19.996	103.297	19.893	4.222	0.487
281.499	219.303	80.007	19.994	103.300	19.897	3.990	0.494
281.999	219.583	80.003	19.987	103.305	19.894	4.157	0.521
282.499	219.805	80.011	19.994	103.312	19.894	4.199	0.516
282.999	220.075	80.005	19.994	103.318	19.891	4.399	0.497
283.499	220.317	80.005	19.995	103.318	19.893	4.238	0.502
283.999	220.602	80.006	19.993	103.315	19.890	4.432	0.520
284.499	220.849	80.007	19.992	103.312	19.895	4.075	0.529
284.999	221.070	80.002	19.992	103.309	19.893	4.217	0.500
285.499	221.297	80.006	19.995	103.303	19.891	4.389	0.457
285.999	221.548	80.007	19.995	103.302	19.891	4.378	0.463
286.499	221.804	80.005	19.993	103.304	19.893	4.228	0.493
286.999	222.020	80.007	19.993	103.302	19.891	4.378	0.490
287.499	222.287	80.006	19.994	103.299	19.895	4.130	0.478
287.999	222.532	80.006	19.995	103.299	19.888	4.622	0.498
288.500	222.760	80.005	19.993	103.299	19.887	4.651	0.492
289.000	223.035	80.006	19.995	103.300	19.890	4.446	0.488
289.499	223.309	80.006	19.994	103.300	19.894	4.166	0.526
289.999	223.528	80.005	19.994	103.299	19.892	4.343	0.521
290.499	223.725	80.007	19.995	103.299	19.890	4.428	0.454
290.999	224.030	80.007	19.995	103.297	19.892	4.312	0.459
291.499	224.277	80.007	19.994	103.296	19.889	4.521	0.527
291.999	224.550	80.005	19.994	103.298	19.890	4.452	0.536
292.499	224.777	80.006	19.994	103.298	19.889	4.504	0.510
292.999	225.032	80.006	19.995	103.298	19.884	4.897	0.491
293.499	225.306	80.007	19.993	103.300	19.885	4.837	0.506
294.000	225.526	80.005	19.994	103.302	19.888	4.602	0.511
294.500	225.812	80.006	19.994	103.304	19.884	4.913	0.500
294.999	226.015	80.004	19.994	103.305	19.883	4.955	0.497
295.499	226.259	80.005	19.994	103.305	19.885	4.794	0.468
295.999	226.524	80.006	19.995	103.305	19.883	4.970	0.478
296.499	226.775	80.007	19.994	103.303	19.884	4.906	0.512
296.999	227.034	80.004	19.991	103.301	19.885	4.829	0.513
297.499	227.250	80.008	19.995	103.301	19.882	4.992	0.493
297.999	227.514	80.007	19.993	103.305	19.881	5.098	0.478
298.499	227.765	80.010	19.993	103.305	19.886	4.759	0.498
298.999	228.047	80.006	19.992	103.306	19.884	4.883	0.524
299.499	228.311	80.011	19.994	103.305	19.884	4.885	0.539
299.999	228.536	80.006	19.995	103.305	19.883	4.963	0.517
300.499	228.829	80.008	19.992	103.300	19.878	5.312	0.504
300.999	229.055	80.007	19.993	103.301	19.880	5.192	0.518
301.499	229.303	80.007	19.995	103.304	19.880	5.153	0.496
301.999	229.534	80.007	19.994	103.307	19.881	5.106	0.476
302.499	229.793	80.007	19.993	103.308	19.879	5.221	0.485
302.999	230.025	80.008	19.994	103.309	19.881	5.120	0.491
303.499	230.291	80.007	19.994	103.306	19.881	5.097	0.495
303.999	230.600	80.007	19.992	103.303	19.879	5.265	0.536
304.500	230.816	80.003	19.995	103.304	19.879	5.213	0.550
305.000	231.088	80.006	19.992	103.302	19.877	5.358	0.506
305.499	231.299	80.006	19.994	103.303	19.880	5.132	0.485
305.999	231.548	80.013	19.992	103.306	19.877	5.370	0.472
306.499	231.797	80.006	19.998	103.304	19.874	5.613	0.479
306.999	232.057	80.007	19.993	103.299	19.876	5.417	0.503
307.499	232.311	80.007	19.993	103.296	19.871	5.779	0.511
307.999	232.593	80.006	19.994	103.295	19.871	5.824	0.525
308.500	232.838	80.007	19.994	103.293	19.875	5.550	0.532
309.000	233.049	80.009	19.995	103.295	19.875	5.504	0.492
309.499	233.262	80.006	19.995	103.300	19.871	5.789	0.440
309.999	233.566	80.011	19.993	103.303	19.872	5.734	0.470
310.499	233.820	80.008	19.992	103.304	19.876	5.485	0.537
310.999	234.071	80.007	19.993	103.305	19.875	5.514	0.532
311.500	234.302	80.004	19.995	103.306	19.873	5.659	0.494
312.000	234.556	80.005	19.996	103.307	19.875	5.504	0.483
312.499	234.801	80.006	19.997	103.307	19.875	5.492	0.492
313.000	235.040	80.008	19.996	103.306	19.870	5.909	0.492
313.500	235.304	80.005	19.995	103.306	19.869	5.947	0.494
313.999	235.534	80.008	19.994	103.305	19.874	5.601	0.498
314.499	235.759	80.007	19.994	103.301	19.873	5.669	0.474
314.999	235.974	80.006	19.994	103.299	19.873	5.640	0.448
315.499	236.256	80.007	19.995	103.300	19.872	5.721	0.469
315.999	236.512	80.003	19.993	103.303	19.867	6.087	0.518
316.500	236.791	80.005	19.994	103.304	19.869	5.915	0.536
317.000	237.019	80.006	19.995	103.308	19.867	6.072	0.521
317.499	237.327	80.006	19.995	103.312	19.865	6.230	0.521
318.000	237.489	80.006	19.994	103.314	19.864	6.331	0.503
318.500	237.770	80.007	19.995	103.311	19.870	5.897	0.457
318.999	238.004	80.007	19.995	103.310	19.867	6.087	0.479
319.499	238.268	80.005	19.996	103.304	19.867	6.058	0.507
319.999	238.527	80.006	19.995	103.305	19.859	6.638	0.510
320.499	238.754	80.006	19.995	103.305	19.864	6.322	0.504
320.999	239.019	80.007	19.995	103.307	19.859	6.686	0.489
321.499	239.276	80.008	19.995	103.309	19.864	6.279	0.507
321.999	239.477	80.007	19.995	103.315	19.859	6.627	0.490
322.499	239.742	80.007	19.996	103.313	19.863	6.371	0.462
322.999	239.982	80.010	19.994	103.309	19.869	5.954	0.486
323.499	240.264	80.007	19.995	103.306	19.860	6.584	0.513
323.999	240.480	80.006	19.994	103.308	19.861	6.549	0.509
324.500	240.759	80.007	19.994	103.303	19.862	6.423	0.497
325.000	240.953	80.007	19.996	103.304	19.858	6.710	0.485
325.500	241.213	80.008	19.995	103.308	19.861	6.508	0.464
326.000	241.468	80.010	19.995	103.313	19.856	6.857	0.484
326.499	241.747	80.009	19.994	103.309	19.859	6.657	0.524
327.000	241.994	80.008	19.996	103.312	19.855	6.944	0.530
327.500	242.244	80.008	19.995	103.313	19.855	6.913	0.511
328.000	242.524	80.006	19.995	103.308	19.857	6.783	0.514
328.499	242.775	80.008	19.994	103.303	19.856	6.847	0.530
328.999	243.039	80.009	19.994	103.301	19.852	7.157	0.523
329.499	243.230	80.007	19.995	103.299	19.853	7.095	0.486
329.999	243.529	80.007	19.995	103.301	19.847	7.496	0.473
330.499	243.772	80.008	19.994	103.306	19.849	7.401	0.516
330.999	244.003	80.009	19.995	103.310	19.853	7.056	0.508
331.499	244.256	80.009	19.995	103.311	19.850	7.273	0.479
331.999	244.485	80.009	19.995	103.315	19.853	7.054	0.483
332.500	244.769	80.010	19.992	103.314	19.854	6.982	0.498
333.000	244.997	80.009	19.995	103.317	19.850	7.308	0.513
333.499	245.210	80.008	19.994	103.317	19.847	7.531	0.476
333.999	245.458	80.004	19.995	103.322	19.849	7.364	0.451
334.499	245.712	80.007	19.994	103.321	19.848	7.409	0.481
334.999	245.985	80.006	19.997	103.319	19.842	7.870	0.514
335.500	246.189	80.006	19.995	103.315	19.842	7.869	0.502
336.000	246.510	80.009	19.995	103.312	19.840	7.987	0.501
336.500	246.731	80.009	19.994	103.310	19.841	7.978	0.534
336.999	247.004	80.007	19.994	103.312	19.834	8.408	0.518
337.499	247.260	80.006	19.993	103.313	19.844	7.761	0.512
337.999	247.495	80.009	19.992	103.316	19.841	7.931	0.510
338.499	247.740	80.008	19.993	103.317	19.841	7.953	0.486
338.999	247.968	80.007	19.995	103.315	19.842	7.871	0.477
339.499	248.226	80.007	19.995	103.312	19.841	7.922	0.480
339.999	248.482	80.006	19.993	103.312	19.836	8.284	0.500
340.499	248.708	80.007	19.993	103.311	19.836	8.327	0.498
340.999	248.922	80.008	19.995	103.311	19.834	8.470	0.461
341.499	249.203	80.008	19.994	103.310	19.830	8.693	0.468
341.999	249.484	80.007	19.994	103.308	19.836	8.276	0.528
342.499	249.738	80.007	19.993	103.306	19.833	8.546	0.549
342.999	250.004	80.008	19.995	103.302	19.830	8.716	0.528
343.499	250.301	80.009	19.988	103.303	19.829	8.827	0.542
344.000	250.514	80.007	19.994	103.306	19.831	8.686	0.537
344.500	250.746	80.007	19.995	103.305	19.827	8.938	0.477
344.999	250.998	80.007	19.994	103.305	19.826	9.040	0.464
345.500	251.278	80.008	19.996	103.308	19.827	8.918	0.508
346.000	251.532	80.007	19.994	103.311	19.822	9.264	0.533
346.499	251.767	80.007	19.994	103.315	19.825	9.105	0.511
346.999	252.046	80.008	19.996	103.321	19.820	9.405	0.501
347.499	252.294	80.009	19.994	103.327	19.820	9.463	0.521
348.000	252.464	80.010	19.996	103.327	19.817	9.642	0.473
348.500	252.729	80.007	19.995	103.326	19.815	9.771	0.427
348.999	253.063	80.009	19.993	103.324	19.816	9.756	0.517
349.500	253.243	80.010	19.992	103.324	19.818	9.579	0.557
350.000	253.482	80.010	19.995	103.323	19.815	9.759	0.466
350.499	253.729	80.008	19.994	103.323	19.818	9.577	0.453
351.000	254.028	80.008	19.996	103.324	19.812	10.004	0.516
351.500	254.258	80.010	19.995	103.325	19.815	9.820	0.538
351.999	254.477	80.008	19.996	103.324	19.809	10.208	0.489
352.499	254.814	80.007	19.993	103.322	19.811	10.103	0.502
352.999	255.052	80.008	19.995	103.323	19.813	9.930	0.565
353.499	255.294	80.007	19.994	103.325	19.811	10.068	0.528
354.000	255.535	80.007	19.995	103.323	19.809	10.252	0.482
354.500	255.731	80.008	19.994	103.325	19.808	10.287	0.460
355.000	256.024	80.007	19.995	103.327	19.806	10.464	0.462
355.499	256.264	80.008	19.994	103.328	19.801	10.770	0.511
355.999	256.515	80.007	19.996	103.328	19.805	10.535	0.512
356.499	256.739	80.007	19.994	103.330	19.804	10.605	0.483
356.999	257.019	80.006	19.993	103.330	19.800	10.849	0.490
357.499	257.229	80.007	19.995	103.331	19.799	10.902	0.497
357.999	257.507	80.004	19.994	103.332	19.800	10.871	0.489
358.500	257.790	80.006	19.995	103.332	19.799	10.942	0.525
359.000	258.012	80.009	19.995	103.331	19.800	10.888	0.534
359.499	258.229	80.007	19.994	103.330	19.795	11.248	0.472
360.000	258.501	80.006	19.997	103.329	19.790	11.559	0.464
360.500	258.714	80.006	19.995	103.328	19.796	11.119	0.487
360.999	258.972	80.003	19.995	103.327	19.790	11.539	0.478
361.499	259.231	80.007	19.994	103.327	19.786	11.845	0.494
361.999	259.485	80.006	19.996	103.328	19.789	11.665	0.515
362.499	259.750	80.007	19.994	103.329	19.786	11.859	0.516
362.999	260.018	80.005	19.994	103.330	19.782	12.151	0.526
363.499	260.244	80.005	19.995	103.331	19.779	12.351	0.514
363.999	260.521	80.006	19.994	103.332	19.778	12.413	0.499
364.499	260.745	80.005	19.994	103.332	19.774	12.745	0.502
364.999	260.959	80.007	19.994	103.332	19.775	12.631	0.469
365.499	261.228	80.006	19.994	103.333	19.776	12.549	0.461
365.999	261.477	80.008	19.994	103.334	19.773	12.747	0.501
366.499	261.716	80.007	19.995	103.334	19.773	12.753	0.503
366.999	262.051	80.007	19.994	103.334	19.770	13.016	0.531
367.499	262.280	80.006	19.996	103.334	19.773	12.763	0.569
367.999	262.546	80.007	19.995	103.333	19.769	13.083	0.530
368.499	262.728	80.007	19.995	103.332	19.767	13.221	0.472
368.999	263.025	80.005	19.994	103.331	19.766	13.265	0.463
369.499	263.269	80.005	19.995	103.331	19.768	13.169	0.510
370.000	263.517	80.007	19.995	103.330	19.762	13.553	0.516
370.500	263.769	80.010	19.993	103.330	19.763	13.492	0.496
370.999	264.027	80.005	19.991	103.330	19.760	13.711	0.505
371.499	264.258	80.008	19.994	103.332	19.759	13.781	0.499
371.999	264.505	80.006	19.996	103.332	19.759	13.783	0.483
372.499	264.786	80.006	19.996	103.330	19.756	13.995	0.503
372.999	265.049	80.003	19.998	103.329	19.752	14.284	0.536
373.499	265.235	80.008	19.994	103.328	19.750	14.406	0.497
373.999	265.506	80.004	19.996	103.328	19.749	14.525	0.453
374.499	265.761	80.006	19.994	103.328	19.749	14.489	0.492
374.999	265.991	80.008	19.994	103.329	19.750	14.458	0.505
375.499	266.232	80.009	19.993	103.331	19.744	14.838	0.478
375.999	266.483	80.008	19.993	103.332	19.743	14.904	0.481
376.499	266.736	80.007	19.994	103.332	19.740	15.144	0.498
376.999	267.036	80.007	19.994	103.333	19.740	15.150	0.528
377.499	267.278	80.007	19.994	103.333	19.738	15.295	0.547
377.999	267.554	80.008	19.994	103.331	19.738	15.274	0.530
378.499	267.790	80.005	19.995	103.333	19.734	15.544	0.515
378.999	268.003	80.005	19.994	103.334	19.732	15.691	0.481
379.499	268.226	80.007	19.994	103.336	19.732	15.695	0.443
380.000	268.497	80.008	19.995	103.338	19.733	15.629	0.465
380.500	268.784	80.006	19.994	103.341	19.726	16.108	0.526
380.999	269.009	80.005	19.994	103.340	19.728	15.971	0.535
381.499	269.280	80.007	19.992	103.338	19.724	16.295	0.504
381.999	269.540	80.006	19.994	103.338	19.723	16.376	0.513
382.500	269.824	80.007	19.997	103.341	19.723	16.364	0.537
383.000	270.034	80.009	19.994	103.339	19.719	16.611	0.519
383.500	270.302	80.006	19.995	103.341	19.717	16.806	0.486
384.000	270.580	80.009	19.993	103.344	19.715	16.919	0.512
384.499	270.797	80.010	19.995	103.346	19.715	16.941	0.520
384.999	271.139	80.007	19.994	103.347	19.710	17.263	0.526
385.499	271.364	80.007	19.994	103.353	19.710	17.238	0.563
385.999	271.621	80.007	19.995	103.358	19.709	17.339	0.525
386.499	271.854	80.005	19.995	103.358	19.706	17.551	0.486
386.999	272.107	80.007	19.994	103.357	19.703	17.766	0.488
387.499	272.368	80.005	19.995	103.356	19.702	17.823	0.500
387.999	272.636	80.007	19.994	103.354	19.702	17.869	0.522
388.499	272.837	80.004	19.995	103.353	19.700	17.970	0.499
388.999	273.109	80.007	19.994	103.354	19.697	18.231	0.471
389.499	273.365	80.005	19.995	103.355	19.697	18.200	0.500
389.999	273.613	80.008	19.997	103.353	19.696	18.235	0.516
390.500	273.839	80.005	19.993	103.353	19.694	18.397	0.489
391.000	274.091	80.005	19.996	103.354	19.691	18.640	0.476
391.500	274.352	80.007	19.996	103.355	19.689	18.759	0.496
392.000	274.565	80.005	19.995	103.358	19.687	18.908	0.494
392.500	274.865	80.006	19.995	103.359	19.685	19.057	0.494
393.000	275.109	80.007	19.994	103.357	19.684	19.096	0.528
393.500	275.390	80.007	19.995	103.357	19.684	19.125	0.534
394.000	275.632	80.006	19.994	103.358	19.677	19.643	0.524
394.499	275.847	80.007	19.994	103.357	19.680	19.443	0.490
394.999	276.107	80.008	19.994	103.360	19.674	19.833	0.465
395.499	276.360	80.006	19.995	103.363	19.674	19.839	0.494
396.000	276.620	80.008	19.995	103.364	19.672	19.973	0.513
396.500	276.891	80.007	19.995	103.365	19.668	20.268	0.522
397.000	277.128	80.006	19.995	103.367	19.668	20.235	0.519
397.499	277.381	80.008	19.993	103.369	19.667	20.299	0.499
397.999	277.590	80.007	19.994	103.370	19.665	20.458	0.476
398.499	277.872	80.008	19.995	103.370	19.663	20.594	0.477
398.999	278.113	80.008	19.995	103.369	19.659	20.925	0.507
399.499	278.337	80.006	19.994	103.368	19.654	21.224	0.493
399.999	278.590	80.006	19.993	103.364	19.660	20.838	0.471
400.499	278.843	80.006	19.995	103.363	19.655	21.222	0.492
400.999	279.099	80.007	19.994	103.364	19.650	21.559	0.507
401.499	279.335	80.007	19.994	103.364	19.649	21.629	0.500
401.999	279.580	80.008	19.994	103.365	19.651	21.507	0.487
402.499	279.854	80.007	19.995	103.368	19.650	21.528	0.500
402.999	280.072	80.008	19.994	103.367	19.647	21.735	0.505
403.499	280.365	80.009	19.993	103.366	19.648	21.712	0.502
403.999	280.591	80.008	19.995	103.366	19.645	21.866	0.515
404.499	280.877	80.007	19.994	103.365	19.647	21.767	0.516
404.999	281.101	80.008	19.994	103.366	19.641	22.151	0.511
405.499	281.345	80.009	19.993	103.367	19.641	22.197	0.489
405.999	281.584	80.010	19.995	103.368	19.638	22.411	0.475
406.500	281.802	80.010	19.993	103.369	19.637	22.500	0.470
407.000	282.071	80.008	19.994	103.370	19.636	22.576	0.472
407.499	282.320	80.010	19.993	103.370	19.634	22.669	0.503
408.000	282.574	80.008	19.995	103.371	19.635	22.642	0.510
408.500	282.810	80.006	19.995	103.370	19.630	22.937	0.496
408.999	283.061	80.006	19.994	103.370	19.628	23.084	0.488
409.499	283.358	80.007	19.994	103.370	19.629	23.017	0.517
409.999	283.581	80.008	19.994	103.370	19.626	23.234	0.534
410.499	283.808	80.008	19.995	103.370	19.622	23.517	0.485
410.999	284.068	80.008	19.994	103.370	19.620	23.712	0.469
411.499	284.322	80.008	19.993	103.371	19.617	23.920	0.501
411.999	284.570	80.007	19.996	103.371	19.618	23.798	0.508
412.499	284.821	80.008	19.994	103.370	19.617	23.889	0.500
412.999	285.064	80.008	19.995	103.369	19.617	23.894	0.496
413.499	285.275	80.007	19.995	103.369	19.617	23.890	0.474
413.999	285.548	80.006	19.994	103.368	19.614	24.079	0.469
414.499	285.784	80.008	19.993	103.369	19.613	24.160	0.497
415.000	286.013	80.006	19.994	103.370	19.612	24.279	0.487
415.500	286.302	80.008	19.995	103.370	19.610	24.376	0.492
415.999	286.574	80.005	19.994	103.370	19.606	24.663	0.539
416.499	286.808	80.007	19.995	103.370	19.607	24.601	0.533
416.999	287.063	80.003	19.993	103.371	19.605	24.728	0.497
417.499	287.319	80.015	19.994	103.371	19.603	24.921	0.500
417.999	287.560	80.014	19.996	103.371	19.605	24.764	0.504
418.499	287.840	80.012	19.996	103.372	19.602	24.992	0.509
418.999	288.079	80.006	19.995	103.372	19.601	25.023	0.520
419.499	288.323	80.008	19.995	103.373	19.598	25.269	0.501
419.999	288.593	80.007	19.995	103.374	19.599	25.153	0.498
420.499	288.860	80.007	19.995	103.375	19.593	25.611	0.526
420.999	289.086	80.006	19.995	103.376	19.595	25.440	0.515
421.499	289.336	80.007	19.995	103.374	19.591	25.727	0.485
421.999	289.573	80.007	19.996	103.373	19.587	26.018	0.482
422.499	289.823	80.007	19.995	103.373	19.589	25.860	0.487
422.999	290.080	80.008	19.994	103.375	19.588	25.969	0.497
423.499	290.362	80.006	19.994	103.375	19.581	26.489	0.523
423.999	290.581	80.007	19.995	103.377	19.584	26.262	0.520
424.499	290.812	80.007	19.996	103.379	19.579	26.597	0.475
424.999	291.070	80.008	19.995	103.381	19.582	26.378	0.469
425.500	291.347	80.008	19.994	103.379	19.579	26.564	0.512
426.000	291.597	80.008	19.995	103.381	19.580	26.557	0.531
426.500	291.863	80.008	19.993	103.383	19.580	26.514	0.521
426.999	292.076	80.007	19.993	103.383	19.574	26.941	0.497
427.500	292.393	80.009	19.994	103.381	19.578	26.669	0.505
428.000	292.643	80.009	19.994	103.380	19.576	26.793	0.549
428.500	292.896	80.008	19.993	103.377	19.574	26.950	0.535
428.999	293.114	80.009	19.995	103.375	19.571	27.142	0.487
429.500	293.396	80.009	19.993	103.373	19.569	27.290	0.485
430.000	293.639	80.008	19.994	103.373	19.570	27.249	0.512
430.499	293.893	80.009	19.994	103.372	19.566	27.517	0.511
431.000	294.154	80.009	19.996	103.372	19.562	27.832	0.506
431.500	294.408	80.009	19.993	103.372	19.562	27.843	0.515
431.999	294.622	80.008	19.995	103.373	19.565	27.628	0.492
432.499	294.910	80.008	19.995	103.371	19.563	27.723	0.485
433.000	295.140	80.009	19.993	103.372	19.565	27.630	0.510
433.500	295.403	80.010	19.995	103.371	19.560	27.947	0.505
434.000	295.609	80.010	19.995	103.370	19.558	28.090	0.481
434.500	295.868	80.010	19.995	103.371	19.557	28.144	0.467
435.000	296.103	80.010	19.995	103.370	19.554	28.404	0.480
435.500	296.344	80.010	19.995	103.370	19.555	28.290	0.485
435.999	296.604	80.011	19.994	103.369	19.551	28.609	0.489
436.499	296.843	80.010	19.994	103.371	19.551	28.618	0.500
436.999	297.114	80.009	19.994	103.371	19.551	28.564	0.504
437.499	297.354	80.010	19.995	103.377	19.549	28.728	0.511
438.000	297.601	80.008	19.994	103.378	19.545	28.999	0.499
438.500	297.869	80.008	19.994	103.379	19.544	29.131	0.501
438.999	298.123	80.006	19.995	103.377	19.545	29.052	0.518
439.499	298.364	80.007	19.995	103.376	19.545	29.030	0.508
439.999	298.637	80.006	19.995	103.371	19.542	29.214	0.504
440.499	298.874	80.006	19.994	103.372	19.539	29.472	0.512
440.999	299.135	80.007	19.998	103.377	19.542	29.239	0.505
441.499	299.391	80.008	19.992	103.378	19.542	29.208	0.508
441.999	299.644	80.007	19.995	103.383	19.545	29.051	0.513
442.499	299.890	80.005	19.995	103.388	19.537	29.588	0.503
442.999	300.125	80.007	19.996	103.387	19.536	29.644	0.490
443.499	300.382	80.009	19.996	103.382	19.536	29.670	0.487
444.000	300.599	80.008	19.995	103.381	19.538	29.487	0.483
444.500	300.858	80.005	19.998	103.379	19.534	29.778	0.475
444.999	301.093	80.007	19.994	103.375	19.531	29.984	0.485
445.499	301.349	80.009	19.996	103.374	19.535	29.765	0.492
445.999	301.606	80.002	19.993	103.375	19.528	30.205	0.502
446.499	301.855	80.009	19.996	103.375	19.528	30.241	0.509
447.000	302.143	80.009	19.992	103.372	19.527	30.338	0.521
447.500	302.339	80.004	19.994	103.372	19.525	30.459	0.511
448.000	302.614	80.007	19.993	103.377	19.526	30.404	0.478
448.500	302.859	80.006	19.995	103.383	19.526	30.359	0.495
448.999	303.113	80.003	19.996	103.387	19.519	30.850	0.509
449.499	303.343	80.005	19.996	103.388	19.520	30.803	0.492
449.999	303.645	80.000	19.994	103.389	19.522	30.672	0.508
450.499	303.887	80.002	19.998	103.389	19.518	30.976	0.538
450.999	304.115	80.008	19.994	103.387	19.515	31.168	0.507
451.500	304.369	80.007	19.995	103.389	19.515	31.159	0.476
452.000	304.585	80.007	19.995	103.392	19.512	31.391	0.476
452.500	304.855	80.008	19.996	103.395	19.515	31.181	0.478
452.999	305.064	80.005	19.995	103.395	19.509	31.611	0.482
453.499	305.337	80.007	19.996	103.392	19.511	31.467	0.481
453.999	305.581	80.005	19.995	103.386	19.506	31.797	0.500
454.499	305.814	80.006	19.995	103.383	19.509	31.565	0.497
454.999	306.115	80.006	19.995	103.377	19.505	31.849	0.505
455.499	306.391	80.010	19.995	103.374	19.501	32.152	0.555
456.000	306.658	80.008	19.994	103.374	19.504	31.982	0.560
456.500	306.881	80.006	19.994	103.382	19.502	32.074	0.517
456.999	307.116	80.009	19.995	103.387	19.498	32.382	0.475
457.499	307.370	80.006	19.992	103.390	19.497	32.416	0.474
457.999	307.644	80.009	19.993	103.391	19.500	32.225	0.508
458.500	307.862	80.006	20.000	103.392	19.497	32.447	0.510
459.000	308.111	80.007	19.993	103.385	19.494	32.660	0.479
459.499	308.372	80.009	19.995	103.383	19.492	32.815	0.488
459.999	308.596	80.007	19.994	103.386	19.493	32.757	0.498
460.499	308.827	80.011	19.993	103.389	19.494	32.676	0.470
460.999	309.109	80.006	19.991	103.394	19.490	32.942	0.484
461.499	309.367	80.010	19.993	103.402	19.486	33.203	0.527
461.999	309.573	80.007	19.996	103.404	19.485	33.339	0.503
462.500	309.866	80.006	19.995	103.406	19.486	33.238	0.481
463.000	310.081	80.005	19.991	103.403	19.481	33.595	0.503
463.499	310.379	80.007	19.995	103.401	19.485	33.269	0.510
463.999	310.594	80.007	19.994	103.399	19.480	33.649	0.513
464.499	310.808	80.007	19.993	103.398	19.477	33.903	0.471
464.999	311.101	80.007	19.994	103.398	19.477	33.853	0.468
465.499	311.303	80.008	19.994	103.402	19.477	33.876	0.502
465.999	311.578	80.008	19.995	103.404	19.477	33.843	0.486
466.499	311.835	80.007	19.994	103.406	19.476	33.956	0.504
466.999	312.116	80.007	19.994	103.407	19.471	34.331	0.535
467.499	312.377	80.006	19.994	103.409	19.473	34.182	0.540
467.999	312.638	80.007	19.995	103.410	19.471	34.274	0.532
468.499	312.826	80.005	19.994	103.411	19.471	34.310	0.485
468.999	313.140	80.006	19.993	103.410	19.467	34.613	0.476
469.499	313.336	80.006	19.993	103.410	19.468	34.550	0.506
469.999	313.562	80.005	19.994	103.411	19.467	34.620	0.466
470.499	313.843	80.005	19.994	103.410	19.467	34.604	0.464
470.999	314.065	80.007	19.992	103.411	19.467	34.605	0.505
471.499	314.332	80.006	19.995	103.411	19.460	35.052	0.496
471.999	314.606	80.007	19.994	103.411	19.465	34.721	0.515
472.499	314.852	80.007	19.994	103.410	19.463	34.874	0.531
472.999	315.136	80.006	19.994	103.410	19.456	35.375	0.525
473.499	315.376	80.007	19.995	103.409	19.455	35.467	0.527
473.999	315.628	80.009	19.993	103.409	19.457	35.298	0.508
474.499	315.880	80.008	19.992	103.410	19.454	35.525	0.498
475.000	316.105	80.005	19.996	103.410	19.451	35.701	0.490
475.500	316.377	80.007	19.999	103.410	19.453	35.621	0.487
475.999	316.604	80.007	19.995	103.409	19.449	35.867	0.498
476.499	316.873	80.005	19.994	103.409	19.447	36.013	0.497
476.999	317.106	80.007	19.993	103.409	19.444	36.239	0.499
477.499	317.358	80.006	19.994	103.411	19.438	36.661	0.494
477.999	317.617	80.005	19.995	103.414	19.440	36.516	0.498
478.499	317.886	80.005	19.994	103.415	19.437	36.729	0.519
478.999	318.129	80.008	19.995	103.415	19.435	36.883	0.520
479.499	318.363	80.008	19.994	103.415	19.435	36.901	0.494
479.999	318.629	80.005	19.995	103.414	19.434	36.944	0.488
480.499	318.846	80.006	19.995	103.411	19.431	37.125	0.492
480.999	319.154	80.007	19.995	103.411	19.427	37.475	0.505
481.499	319.360	80.008	19.993	103.411	19.427	37.442	0.519
481.999	319.610	80.004	19.994	103.415	19.428	37.367	0.484
482.499	319.859	80.007	19.996	103.417	19.424	37.681	0.477
482.999	320.109	80.005	19.994	103.419	19.420	37.936	0.499
483.499	320.353	80.008	19.993	103.419	19.420	37.948	0.497
483.999	320.640	80.006	19.996	103.419	19.419	38.036	0.512
484.499	320.936	80.007	19.994	103.417	19.417	38.168	0.557
484.999	321.181	80.010	19.994	103.414	19.412	38.505	0.562
485.499	321.422	80.007	19.997	103.417	19.413	38.407	0.513
485.999	321.660	80.011	19.995	103.420	19.411	38.558	0.482
486.500	321.917	80.008	19.994	103.424	19.410	38.630	0.487
487.000	322.152	80.005	19.995	103.424	19.414	38.393	0.493
487.499	322.421	80.008	19.994	103.424	19.407	38.837	0.498
487.999	322.679	80.008	19.992	103.421	19.402	39.217	0.516
488.499	322.924	80.011	19.993	103.419	19.398	39.501	0.515
488.999	323.197	80.009	19.993	103.419	19.400	39.341	0.511
489.499	323.405	80.005	19.998	103.420	19.401	39.288	0.499
490.000	323.673	80.010	19.995	103.421	19.394	39.784	0.478
490.500	323.892	80.007	19.999	103.424	19.390	40.048	0.481
490.999	324.148	80.010	19.992	103.423	19.390	40.099	0.481
491.499	324.389	80.007	19.995	103.424	19.387	40.308	0.486
492.000	324.623	80.008	19.999	103.426	19.384	40.486	0.487
492.500	324.902	80.006	19.994	103.426	19.381	40.702	0.494
493.000	325.153	80.009	19.989	103.425	19.382	40.634	0.521
493.499	325.419	80.006	19.993	103.428	19.383	40.565	0.524
493.999	325.607	80.009	19.993	103.426	19.377	40.991	0.485
494.500	325.920	80.006	19.995	103.427	19.377	40.991	0.477
495.000	326.104	80.008	19.995	103.426	19.371	41.414	0.499
495.499	326.400	80.008	19.993	103.433	19.370	41.525	0.489
496.000	326.663	80.007	19.993	103.436	19.368	41.666	0.519
496.500	326.906	80.005	19.994	103.435	19.366	41.767	0.533
496.999	327.154	80.008	19.993	103.432	19.362	42.095	0.499
497.499	327.413	80.006	19.994	103.430	19.361	42.122	0.499
497.999	327.673	80.008	19.993	103.427	19.358	42.375	0.513
498.499	327.941	80.006	19.995	103.428	19.357	42.449	0.524
498.999	328.186	80.008	19.994	103.432	19.354	42.676	0.521
499.499	328.417	80.011	19.993	103.439	19.353	42.690	0.495
499.999	328.651	80.005	19.995	103.446	19.348	43.113	0.470
500.499	328.917	80.008	19.994	103.446	19.347	43.136	0.482
500.999	329.203	80.007	19.994	103.443	19.343	43.405	0.526
501.499	329.438	80.006	19.994	103.442	19.341	43.582	0.536
501.999	329.665	80.010	19.992	103.440	19.336	43.944	0.491
502.499	329.907	80.006	19.990	103.438	19.334	44.098	0.465
502.999	330.150	80.009	19.993	103.441	19.332	44.228	0.477
503.499	330.425	80.010	19.994	103.443	19.329	44.459	0.502
503.999	330.665	80.010	19.994	103.443	19.325	44.693	0.516
504.499	330.932	80.008	19.992	103.445	19.323	44.899	0.511
504.999	331.158	80.006	19.996	103.448	19.321	45.008	0.500
505.499	331.417	80.008	19.996	103.447	19.323	44.846	0.489
506.000	331.656	80.007	19.994	103.448	19.320	45.116	0.492
506.500	331.929	80.009	19.993	103.448	19.318	45.207	0.505
506.999	332.160	80.007	19.994	103.447	19.312	45.636	0.508
507.499	332.430	80.007	19.994	103.447	19.311	45.719	0.503
507.999	332.690	80.009	19.995	103.447	19.306	46.056	0.516
508.499	332.916	80.007	19.994	103.447	19.303	46.305	0.508
508.999	333.190	80.007	19.994	103.449	19.297	46.710	0.493
509.499	333.447	80.008	19.994	103.453	19.294	46.916	0.516
509.999	333.706	80.009	19.995	103.452	19.295	46.885	0.524
510.499	333.919	80.009	19.994	103.453	19.291	47.190	0.494
510.999	334.215	80.009	19.996	103.453	19.288	47.405	0.490
511.499	334.464	80.008	19.995	103.454	19.286	47.542	0.527
511.999	334.677	80.009	19.995	103.456	19.282	47.787	0.504
512.499	334.942	80.011	19.994	103.461	19.278	48.090	0.470
512.999	335.167	80.008	19.994	103.464	19.273	48.473	0.484
513.499	335.439	80.009	19.996	103.470	19.267	48.910	0.493
513.999	335.684	80.008	19.995	103.474	19.267	48.888	0.507
514.500	335.942	80.009	19.995	103.476	19.263	49.167	0.510
515.000	336.149	80.010	19.994	103.474	19.259	49.440	0.484
515.499	336.440	80.009	19.996	103.478	19.256	49.651	0.482
515.999	336.670	80.010	19.993	103.478	19.252	49.974	0.510
516.499	336.945	80.010	19.995	103.477	19.245	50.414	0.513
516.999	337.179	80.009	19.995	103.476	19.242	50.666	0.507
517.499	337.449	80.009	19.994	103.481	19.235	51.152	0.507
517.999	337.654	80.008	19.994	103.480	19.237	51.047	0.489
518.499	337.937	80.008	19.994	103.481	19.232	51.375	0.482
518.999	338.168	80.008	19.994	103.482	19.227	51.731	0.501
519.499	338.449	80.007	19.995	103.483	19.227	51.724	0.513
520.000	338.706	80.008	19.994	103.485	19.218	52.360	0.525
520.500	338.952	80.011	19.994	103.486	19.216	52.532	0.520
520.999	339.187	80.008	19.994	103.487	19.219	52.301	0.492
521.499	339.450	80.007	19.993	103.487	19.211	52.913	0.489
521.999	339.661	80.008	19.995	103.491	19.208	53.078	0.486
522.499	339.960	80.008	19.994	103.493	19.202	53.500	0.492
522.999	340.187	80.007	19.994	103.494	19.202	53.520	0.518
523.499	340.410	80.003	19.995	103.499	19.194	54.070	0.488
523.999	340.688	80.008	19.994	103.504	19.191	54.273	0.475
524.499	340.966	80.008	19.994	103.504	19.189	54.487	0.529
524.999	341.176	80.009	19.993	103.506	19.181	55.007	0.522
525.499	341.454	80.004	19.996	103.510	19.179	55.197	0.488
525.999	341.714	80.006	19.993	103.511	19.176	55.361	0.513
526.499	341.949	80.009	19.994	103.511	19.175	55.476	0.516
526.999	342.174	80.006	19.996	103.511	19.169	55.909	0.477
527.499	342.430	80.007	19.993	103.514	19.166	56.070	0.471
527.999	342.664	80.006	19.995	103.517	19.158	56.698	0.486
528.499	342.906	80.006	19.994	103.519	19.152	57.071	0.483
528.999	343.178	80.006	19.996	103.522	19.152	57.074	0.495
529.499	343.381	80.007	19.995	103.525	19.146	57.535	0.495
529.999	343.654	80.006	19.995	103.528	19.141	57.914	0.475
530.499	343.908	80.006	19.996	103.528	19.132	58.555	0.501
530.999	344.151	80.006	19.994	103.530	19.132	58.567	0.512
531.500	344.392	80.005	19.995	103.533	19.127	58.916	0.491
532.000	344.666	80.006	19.995	103.536	19.123	59.141	0.500
532.499	344.883	80.006	19.994	103.533	19.122	59.222	0.503
532.999	345.163	80.004	19.996	103.533	19.114	59.781	0.493
533.499	345.404	80.006	19.994	103.530	19.112	59.977	0.509
533.999	345.683	80.004	19.994	103.531	19.107	60.296	0.521
534.499	345.929	80.007	19.995	103.533	19.100	60.796	0.522
534.999	346.157	80.006	19.994	103.533	19.098	60.956	0.499
535.499	346.457	80.007	19.995	103.534	19.095	61.201	0.501
535.999	346.722	80.004	19.995	103.540	19.085	61.897	0.547
536.499	346.966	80.006	19.995	103.543	19.083	62.036	0.537
536.999	347.211	80.004	19.996	103.539	19.082	62.127	0.499
537.499	347.425	80.006	19.996	103.543	19.074	62.667	0.474
537.999	347.694	80.005	19.997	103.550	19.070	62.979	0.471
538.499	347.936	80.007	19.995	103.552	19.066	63.218	0.497
538.999	348.204	80.003	19.996	103.554	19.060	63.678	0.510
539.499	348.459	80.006	19.996	103.560	19.058	63.818	0.516
539.999	348.714	80.005	19.997	103.563	19.055	64.058	0.517
540.499	348.979	80.008	19.995	103.563	19.048	64.551	0.515
540.999	349.245	80.007	19.997	103.563	19.043	64.893	0.526
541.499	349.492	80.006	19.996	103.563	19.037	65.288	0.522
541.999	349.728	80.006	19.995	103.564	19.030	65.801	0.498
542.499	349.982	80.007	19.997	103.564	19.027	66.021	0.487
543.000	350.239	80.007	19.997	103.563	19.024	66.232	0.500
543.500	350.477	80.006	19.995	103.562	19.019	66.598	0.502
543.999	350.727	80.007	19.996	103.560	19.012	67.086	0.492
544.499	350.967	80.003	19.998	103.561	19.007	67.450	0.489
544.999	351.223	80.005	19.996	103.560	19.004	67.651	0.493
545.499	351.463	80.004	19.996	103.562	18.999	68.007	0.496
546.000	351.710	80.007	19.996	103.563	18.992	68.541	0.492
546.500	351.998	80.005	19.995	103.567	18.992	68.557	0.511
546.999	352.267	80.005	19.996	103.568	18.986	68.956	0.546
547.499	352.476	80.006	19.995	103.572	18.981	69.297	0.517
547.999	352.751	80.006	19.994	103.573	18.981	69.330	0.481
548.499	352.996	80.004	19.996	103.573	18.976	69.720	0.502
548.999	353.285	80.006	19.995	103.571	18.971	70.041	0.528
549.500	353.511	80.005	19.994	103.571	18.964	70.520	0.524
550.000	353.758	80.007	19.995	103.573	18.964	70.517	0.494
550.499	354.035	80.006	19.994	103.574	18.958	70.991	0.499
550.999	354.311	80.008	19.995	103.574	18.951	71.490	0.539
551.499	354.537	80.006	19.994	103.577	18.948	71.688	0.528
551.999	354.756	80.008	19.994	103.577	18.945	71.902	0.474
552.499	355.023	80.007	19.995	103.574	18.945	71.866	0.465
552.999	355.268	80.006	19.994	103.575	18.940	72.225	0.499
553.499	355.537	80.006	19.993	103.582	18.936	72.510	0.513
553.999	355.782	80.007	19.994	103.586	18.935	72.612	0.514
554.499	356.000	80.008	19.995	103.591	18.930	72.939	0.489
554.999	356.249	80.007	19.994	103.594	18.924	73.353	0.465
555.500	356.488	80.006	19.997	103.596	18.925	73.306	0.478
556.000	356.748	80.005	19.994	103.593	18.918	73.797	0.493
556.499	357.001	80.008	19.993	103.588	18.916	73.929	0.506
556.999	357.244	80.008	19.995	103.588	18.916	73.962	0.505
557.499	357.476	80.006	19.994	103.590	18.909	74.416	0.486
557.999	357.745	80.005	19.993	103.594	18.909	74.455	0.489
558.500	357.993	80.006	19.994	103.599	18.905	74.715	0.509
559.000	358.232	80.006	19.994	103.603	18.904	74.820	0.502
559.499	358.469	80.009	19.995	103.604	18.898	75.227	0.482
559.999	358.706	80.005	19.995	103.604	18.895	75.433	0.475
560.499	358.980	80.004	19.994	103.601	18.894	75.493	0.492
560.999	359.210	80.007	19.996	103.599	18.894	75.521	0.507
561.499	359.520	80.005	19.993	103.601	18.891	75.745	0.522
561.999	359.738	80.006	19.995	103.601	18.889	75.852	0.534
562.499	359.980	80.007	19.995	103.601	18.885	76.139	0.495
562.999	360.259	80.008	19.994	103.604	18.885	76.132	0.491
563.499	360.533	80.008	19.993	103.604	18.882	76.369	0.537
563.999	360.759	80.008	19.992	103.601	18.882	76.372	0.527
564.499	361.033	80.008	19.994	103.600	18.884	76.201	0.500
564.999	361.263	80.006	19.995	103.593	18.880	76.460	0.502
565.500	361.524	80.004	19.994	103.593	18.882	76.350	0.498
566.000	361.768	80.007	19.995	103.592	18.879	76.563	0.498
566.499	362.047	80.008	19.995	103.591	18.878	76.655	0.514
566.999	362.277	80.006	19.996	103.584	18.877	76.723	0.516
567.499	362.559	80.005	19.995	103.584	18.874	76.931	0.510
567.999	362.860	80.007	19.994	103.581	18.874	76.941	0.547
568.499	363.097	80.008	19.995	103.578	18.874	76.917	0.561
568.999	363.324	80.008	19.993	103.581	18.876	76.782	0.501
569.499	363.580	80.010	19.993	103.582	18.874	76.905	0.473
569.999	363.845	80.009	19.996	103.586	18.875	76.838	0.502
570.499	364.125	80.009	19.996	103.581	18.873	76.954	0.533
571.000	364.378	80.010	19.994	103.579	18.877	76.702	0.540
571.500	364.626	80.009	19.994	103.573	18.876	76.760	0.517
571.999	364.901	80.007	19.997	103.568	18.880	76.488	0.512
572.499	365.152	80.008	19.993	103.559	18.879	76.569	0.524
572.999	365.392	80.007	19.995	103.562	18.881	76.400	0.509
573.500	365.681	80.008	19.994	103.562	18.882	76.321	0.510
574.000	365.932	80.010	19.996	103.559	18.886	76.002	0.534
574.499	366.186	80.009	19.994	103.560	18.887	75.944	0.522
574.999	366.464	80.009	19.994	103.560	18.890	75.757	0.518
575.500	366.729	80.007	19.994	103.550	18.893	75.510	0.538
576.000	366.977	80.009	19.995	103.537	18.894	75.418	0.528
576.499	367.224	80.008	19.994	103.526	18.897	75.242	0.504
576.999	367.483	80.008	19.994	103.520	18.901	74.904	0.500
577.499	367.766	80.010	19.993	103.523	18.904	74.679	0.524
577.999	368.032	80.004	19.993	103.531	18.911	74.180	0.545
578.499	368.300	80.008	19.995	103.542	18.911	74.176	0.541
578.999	368.573	80.008	19.995	103.548	18.911	74.203	0.538
579.499	368.837	80.007	19.994	103.547	18.915	73.903	0.539
579.999	369.088	80.006	19.994	103.535	18.925	73.188	0.526
580.499	369.341	80.008	19.991	103.526	18.926	73.127	0.510
580.999	369.549	80.009	19.995	103.521	18.935	72.503	0.483
581.499	369.832	80.006	19.995	103.520	18.940	72.149	0.476
581.999	370.067	80.008	19.994	103.521	18.946	71.704	0.504
582.500	370.374	80.009	19.998	103.523	18.948	71.513	0.530
583.000	370.623	80.009	19.994	103.519	18.957	70.877	0.549
583.499	370.893	80.008	19.993	103.510	18.964	70.390	0.537
583.999	371.187	80.007	19.994	103.502	18.970	69.991	0.541
584.500	371.426	80.009	19.993	103.494	18.979	69.333	0.549
585.000	371.672	80.006	19.993	103.488	18.984	68.934	0.509
585.499	371.927	80.008	19.996	103.481	18.994	68.270	0.493
585.999	372.232	80.014	19.991	103.472	18.998	67.930	0.530
586.499	372.467	80.009	19.995	103.463	19.007	67.312	0.550
586.999	372.741	80.009	19.993	103.455	19.015	66.717	0.525
587.499	372.997	80.008	19.994	103.445	19.024	66.134	0.519
587.999	373.263	80.008	19.995	103.428	19.033	65.440	0.526
588.499	373.533	80.008	19.995	103.417	19.044	64.656	0.529
588.999	373.821	80.009	19.995	103.406	19.049	64.289	0.547
589.499	374.091	80.010	19.993	103.398	19.059	63.623	0.558
590.000	374.333	80.011	19.992	103.392	19.070	62.812	0.535
590.500	374.589	80.008	19.994	103.401	19.075	62.417	0.505
591.000	374.854	80.008	19.995	103.407	19.089	61.465	0.510
591.499	375.084	80.008	19.994	103.415	19.096	60.972	0.508
592.000	375.392	80.010	19.993	103.416	19.107	60.165	0.516
592.500	375.646	80.009	19.995	103.414	19.119	59.305	0.550
592.999	375.927	80.009	19.993	103.411	19.129	58.577	0.549
593.499	376.143	80.010	19.993	103.403	19.140	57.811	0.516
593.999	376.400	80.010	19.994	103.392	19.150	57.071	0.485
594.499	376.690	80.011	19.992	103.386	19.160	56.399	0.510
594.999	376.967	80.009	19.995	103.381	19.169	55.723	0.557
595.499	377.214	80.012	19.994	103.371	19.179	55.023	0.545
595.999	377.477	80.010	19.994	103.366	19.195	53.919	0.517
596.499	377.757	80.007	19.988	103.366	19.206	53.094	0.527
596.999	378.025	80.009	19.992	103.365	19.214	52.519	0.545
597.499	378.272	80.007	19.996	103.360	19.229	51.438	0.531
597.999	378.543	80.010	19.995	103.362	19.242	50.569	0.516
598.500	378.792	80.008	19.994	103.361	19.253	49.737	0.519
599.000	379.033	80.010	19.993	103.355	19.267	48.781	0.505
599.499	379.313	80.009	19.996	103.347	19.276	48.149	0.506
600.000	379.578	80.009	19.993	103.341	19.291	47.030	0.534
600.500	379.794	80.009	19.991	103.329	19.303	46.170	0.513
600.999	380.064	80.008	19.996	103.319	19.315	45.318	0.483
601.499	380.357	80.008	19.994	103.316	19.331	44.205	0.524
601.999	380.628	80.010	19.993	103.308	19.340	43.556	0.564
602.499	380.867	80.007	19.994	103.307	19.357	42.343	0.537
602.999	381.120	80.005	19.996	103.306	19.370	41.426	0.501
603.499	381.386	80.006	19.997	103.304	19.378	40.838	0.505
603.999	381.666	80.007	19.995	103.298	19.395	39.630	0.532
604.499	381.899	80.006	19.995	103.296	19.406	38.839	0.529
604.999	382.154	80.006	19.996	103.286	19.418	38.017	0.501
605.499	382.392	80.005	19.995	103.283	19.428	37.270	0.491
605.999	382.694	80.006	19.995	103.283	19.439	36.481	0.517
606.499	382.888	80.009	19.993	103.283	19.453	35.542	0.518
606.999	383.169	80.007	19.994	103.283	19.460	35.000	0.486
607.500	383.448	80.006	19.995	103.288	19.476	33.903	0.517
608.000	383.703	80.008	19.995	103.281	19.489	32.974	0.547
608.500	383.925	80.007	19.995	103.275	19.499	32.285	0.506
608.999	384.200	80.006	19.996	103.271	19.515	31.121	0.487
609.499	384.441	80.007	19.994	103.265	19.521	30.711	0.506
609.999	384.701	80.006	19.994	103.259	19.535	29.667	0.508
610.499	384.970	80.005	19.997	103.258	19.546	28.889	0.515
610.999	385.224	80.006	19.996	103.256	19.559	28.014	0.526
611.499	385.506	80.005	19.999	103.252	19.570	27.222	0.530
612.000	385.717	80.007	19.995	103.248	19.581	26.414	0.515
612.500	385.952	80.007	19.996	103.239	19.589	25.829	0.469
612.999	386.258	80.004	19.994	103.231	19.602	24.939	0.494
613.499	386.541	80.007	19.993	103.225	19.609	24.393	0.565
613.999	386.802	80.010	19.993	103.210	19.623	23.461	0.566
614.499	387.061	80.012	19.995	103.199	19.632	22.792	0.532
614.999	387.321	80.012	19.992	103.194	19.641	22.154	0.520
615.499	387.569	80.007	19.995	103.194	19.650	21.529	0.514
615.999	387.803	80.006	19.995	103.198	19.664	20.535	0.495
616.499	388.069	80.007	19.994	103.213	19.671	19.994	0.491
616.999	388.359	80.013	19.988	103.228	19.684	19.093	0.528
617.499	388.582	80.007	19.993	103.239	19.690	18.652	0.534
617.999	388.889	80.007	19.994	103.245	19.697	18.199	0.521
618.499	389.100	80.008	19.994	103.242	19.706	17.529	0.525
618.999	389.379	80.007	19.994	103.234	19.720	16.559	0.505
619.499	389.611	80.005	19.997	103.228	19.726	16.130	0.501
619.999	389.881	80.006	19.993	103.222	19.730	15.831	0.506
620.499	390.145	80.007	19.995	103.218	19.737	15.352	0.517
620.999	390.375	80.007	19.994	103.217	19.746	14.686	0.514
621.499	390.625	80.006	19.995	103.217	19.754	14.083	0.487
621.999	390.861	80.007	19.994	103.218	19.760	13.716	0.483
622.499	391.175	80.007	19.994	103.218	19.765	13.326	0.518
622.999	391.396	80.009	19.994	103.217	19.772	12.829	0.543
623.499	391.674	80.006	19.995	103.214	19.778	12.383	0.518
623.999	391.905	80.010	19.993	103.201	19.785	11.877	0.504
624.499	392.201	80.009	19.993	103.191	19.794	11.286	0.518
624.999	392.378	80.009	19.994	103.196	19.797	11.095	0.500
625.499	392.685	80.009	19.993	103.203	19.800	10.833	0.478
625.999	392.943	80.008	19.995	103.204	19.809	10.219	0.524
626.499	393.229	80.008	19.993	103.217	19.813	9.940	0.554
626.999	393.461	80.007	19.994	103.221	19.817	9.628	0.531
627.499	393.759	80.007	19.991	103.210	19.822	9.293	0.524
627.999	393.995	80.009	19.995	103.203	19.826	8.968	0.532
628.499	394.256	80.006	19.996	103.195	19.829	8.819	0.515
628.999	394.487	80.007	19.995	103.183	19.833	8.480	0.494
629.499	394.758	80.007	19.994	103.174	19.836	8.312	0.497
629.999	395.019	80.006	19.995	103.171	19.843	7.810	0.517
630.499	395.264	80.007	19.995	103.174	19.844	7.738	0.518
630.999	395.549	80.007	19.995	103.181	19.847	7.538	0.518
631.499	395.820	80.006	19.995	103.185	19.849	7.366	0.543
631.999	396.075	80.008	19.995	103.183	19.852	7.184	0.542
632.499	396.340	80.007	19.996	103.182	19.854	7.012	0.523
632.999	396.577	80.006	19.995	103.170	19.855	6.925	0.511
633.499	396.814	80.005	19.996	103.162	19.859	6.652	0.487
633.999	397.084	80.008	19.996	103.163	19.858	6.692	0.491
634.499	397.355	80.008	19.996	103.175	19.862	6.439	0.525
634.999	397.630	80.005	19.994	103.186	19.864	6.280	0.544
635.499	397.859	80.005	19.996	103.197	19.866	6.164	0.525
635.999	398.092	80.005	19.996	103.204	19.868	5.990	0.483
636.499	398.343	80.007	19.996	103.213	19.876	5.482	0.473
636.999	398.600	80.007	19.996	103.214	19.874	5.615	0.496
637.500	398.882	80.004	19.995	103.206	19.874	5.621	0.523
638.000	399.151	80.006	19.996	103.202	19.877	5.379	0.545
638.500	399.390	80.004	19.997	103.203	19.873	5.624	0.530
638.999	399.620	80.004	19.995	103.204	19.879	5.254	0.489
639.499	399.929	80.007	19.998	103.207	19.879	5.218	0.503
639.999	400.180	80.006	19.996	103.211	19.880	5.161	0.549
640.499	400.422	80.005	19.997	103.211	19.884	4.882	0.527
640.999	400.665	80.004	19.997	103.207	19.884	4.861	0.489
641.499	400.928	80.006	19.996	103.197	19.889	4.488	0.495
641.999	401.155	80.006	19.996	103.196	19.890	4.442	0.498
642.499	401.425	80.005	19.996	103.199	19.885	4.817	0.494
642.999	401.674	80.006	19.996	103.199	19.886	4.708	0.508
643.500	401.928	80.008	19.995	103.200	19.895	4.089	0.511
644.000	402.185	80.005	19.997	103.204	19.893	4.242	0.507
644.499	402.414	80.007	19.995	103.199	19.895	4.126	0.499
644.999	402.674	80.007	19.993	103.196	19.899	3.791	0.487
645.499	402.938	80.004	19.993	103.196	19.895	4.123	0.507
645.999	403.154	80.006	19.999	103.199	19.898	3.890	0.502
646.499	403.412	80.013	19.995	103.203	19.895	4.059	0.477
646.999	403.689	80.024	19.996	103.212	19.897	3.968	0.504
647.499	403.925	80.027	20.000	103.218	19.898	3.860	0.524
647.999	404.207	80.028	19.995	103.218	19.897	3.950	0.516
648.499	404.431	80.016	19.997	103.218	19.902	3.594	0.512
648.999	404.692	80.010	19.997	103.215	19.900	3.745	0.495
649.499	404.961	80.011	19.996	103.207	19.904	3.435	0.507
649.999	405.210	80.007	19.994	103.204	19.903	3.552	0.524
650.499	405.443	80.008	19.995	103.204	19.908	3.172	0.500
650.999	405.699	80.007	19.996	103.198	19.904	3.472	0.485
651.499	405.955	80.010	19.994	103.194	19.906	3.330	0.501
651.999	406.217	80.009	19.995	103.188	19.904	3.443	0.515
652.499	406.442	80.007	19.996	103.176	19.908	3.147	0.502
652.999	406.749	80.007	19.994	103.168	19.910	3.035	0.510
653.499	406.988	80.009	19.996	103.176	19.908	3.184	0.539
653.999	407.167	80.007	19.996	103.186	19.910	3.057	0.482
654.499	407.506	80.009	19.995	103.196	19.912	2.883	0.468
654.999	407.707	80.007	19.993	103.207	19.912	2.908	0.529
655.499	408.000	80.009	19.994	103.212	19.910	3.030	0.517
655.999	408.226	80.009	19.994	103.205	19.912	2.863	0.506
656.499	408.479	80.009	19.995	103.191	19.912	2.864	0.499
657.000	408.745	80.008	19.995	103.180	19.913	2.830	0.499
657.500	408.991	80.009	19.998	103.173	19.915	2.671	0.516
657.999	409.303	80.009	19.994	103.175	19.913	2.792	0.535
658.499	409.548	80.006	19.997	103.187	19.913	2.786	0.558
659.000	409.823	80.012	19.995	103.206	19.917	2.559	0.539
659.500	410.056	80.008	19.995	103.220	19.914	2.710	0.514
659.999	410.332	80.009	19.995	103.228	19.916	2.588	0.508
660.499	410.573	80.011	19.992	103.220	19.916	2.628	0.513
660.999	410.773	80.008	19.994	103.197	19.917	2.564	0.479
661.499	411.045	80.008	19.995	103.179	19.915	2.654	0.456
661.999	411.316	80.006	19.997	103.169	19.916	2.628	0.508
662.499	411.584	80.012	19.992	103.159	19.917	2.542	0.541
662.999	411.815	80.009	19.993	103.161	19.916	2.602	0.519
663.499	412.065	80.007	19.996	103.169	19.916	2.608	0.490
663.999	412.331	80.010	19.994	103.174	19.917	2.548	0.498
664.500	412.592	80.007	19.993	103.185	19.919	2.379	0.522
665.000	412.824	80.008	19.994	103.201	19.919	2.362	0.511
665.499	413.064	80.007	19.997	103.209	19.913	2.820	0.483
665.999	413.299	80.007	19.995	103.207	19.913	2.843	0.473
666.499	413.590	80.009	19.995	103.197	19.914	2.747	0.500
666.999	413.807	80.010	19.991	103.181	19.913	2.809	0.517
667.499	414.067	80.008	19.994	103.170	19.919	2.414	0.493
667.999	414.331	80.005	19.994	103.177	19.916	2.612	0.501
668.499	414.562	80.008	19.995	103.186	19.915	2.674	0.510
669.000	414.835	80.004	20.000	103.200	19.919	2.354	0.499
669.500	415.078	80.007	19.994	103.210	19.920	2.321	0.510
670.000	415.351	80.007	19.996	103.201	19.921	2.213	0.516
670.500	415.586	80.009	19.996	103.183	19.921	2.274	0.512
670.999	415.850	80.016	19.995	103.175	19.923	2.084	0.503
671.499	416.057	80.009	19.993	103.170	19.923	2.121	0.485
671.999	416.330	80.005	19.994	103.171	19.924	2.017	0.475
672.499	416.551	80.009	19.998	103.178	19.926	1.914	0.487
672.999	416.868	80.008	19.992	103.179	19.922	2.195	0.516
673.499	417.104	80.010	20.000	103.189	19.925	1.976	0.546
674.000	417.362	80.008	19.995	103.193	19.925	1.947	0.523
674.500	417.622	80.010	19.994	103.197	19.926	1.906	0.506
674.999	417.883	80.007	19.994	103.200	19.926	1.918	0.519
675.499	418.111	80.010	19.994	103.201	19.925	1.959	0.505
675.999	418.385	80.008	19.994	103.185	19.926	1.918	0.495
676.499	418.598	80.009	19.996	103.178	19.927	1.848	0.494
676.999	418.882	80.010	19.995	103.179	19.926	1.901	0.492
677.499	419.141	80.008	19.995	103.183	19.928	1.744	0.520
677.999	419.409	80.010	19.992	103.191	19.924	2.015	0.535
678.499	419.640	80.011	19.994	103.207	19.927	1.808	0.513
678.999	419.899	80.009	19.994	103.217	19.930	1.574	0.495
679.500	420.127	80.009	19.993	103.213	19.929	1.649	0.489
680.000	420.397	80.005	19.994	103.210	19.925	1.938	0.492
680.499	420.655	80.007	19.994	103.203	19.928	1.744	0.513
680.999	420.924	80.010	19.993	103.192	19.930	1.577	0.528
681.499	421.183	80.012	19.990	103.176	19.926	1.862	0.527
681.999	421.393	80.010	19.993	103.172	19.933	1.397	0.498
682.499	421.673	80.011	19.993	103.162	19.934	1.341	0.479
682.999	421.950	80.006	19.994	103.162	19.936	1.211	0.523
683.499	422.234	80.010	19.993	103.165	19.936	1.200	0.559
683.999	422.488	80.010	19.995	103.171	19.932	1.451	0.549
684.499	422.720	80.008	19.994	103.171	19.934	1.320	0.512
684.999	423.005	80.006	19.996	103.178	19.931	1.521	0.502
685.499	423.209	80.006	19.996	103.177	19.930	1.572	0.503
685.999	423.490	80.008	19.993	103.178	19.928	1.777	0.487
686.500	423.735	80.006	19.994	103.182	19.934	1.308	0.506
687.000	423.979	80.006	19.992	103.178	19.935	1.283	0.507
687.499	424.278	80.005	19.994	103.172	19.934	1.310	0.516
687.999	424.506	80.007	19.994	103.171	19.933	1.407	0.535
688.499	424.814	80.007	19.995	103.170	19.936	1.150	0.531
688.999	425.051	80.006	19.994	103.173	19.933	1.393	0.540
689.499	425.304	80.007	19.994	103.182	19.935	1.217	0.517
689.999	425.574	80.009	19.992	103.188	19.933	1.368	0.507
690.499	425.811	80.003	19.998	103.189	19.935	1.269	0.516
690.999	426.058	80.004	19.996	103.190	19.938	1.039	0.495
691.499	426.296	80.005	19.995	103.190	19.938	1.024	0.484
691.999	426.571	80.003	19.997	103.177	19.937	1.120	0.499
692.499	426.811	80.006	19.996	103.169	19.936	1.161	0.514
692.999	427.105	80.008	19.998	103.159	19.939	0.954	0.525
693.499	427.325	80.005	19.996	103.154	19.935	1.229	0.525
693.999	427.583	80.011	19.994	103.146	19.936	1.161	0.496
694.499	427.839	80.008	19.992	103.151	19.940	0.896	0.496
694.999	428.076	80.010	19.997	103.159	19.937	1.109	0.503
695.499	428.342	80.006	19.996	103.174	19.935	1.218	0.498
695.999	428.600	80.009	19.989	103.185	19.937	1.086	0.514
696.499	428.866	80.004	19.999	103.181	19.940	0.923	0.524
696.999	429.157	80.005	19.997	103.173	19.937	1.119	0.540
697.499	429.440	80.010	19.995	103.168	19.939	0.939	0.566
697.999	429.653	80.012	19.993	103.161	19.936	1.177	0.536
698.499	429.890	80.008	19.996	103.156	19.938	1.011	0.473
698.999	430.131	80.004	19.992	103.165	19.938	1.042	0.464
699.499	430.427	80.004	19.994	103.173	19.937	1.075	0.508
699.999	430.671	80.002	19.992	103.170	19.939	0.951	0.539
700.499	430.895	80.007	19.998	103.163	19.939	1.001	0.504
700.999	431.165	80.004	19.994	103.158	19.939	0.945	0.481
701.499	431.428	80.004	19.996	103.157	19.938	1.049	0.514
701.999	431.657	80.006	19.997	103.156	19.940	0.927	0.512
702.499	431.931	80.007	19.996	103.158	19.942	0.786	0.497
702.999	432.181	80.006	19.995	103.159	19.942	0.726	0.513
703.499	432.448	80.009	19.996	103.156	19.937	1.082	0.521
704.000	432.692	80.007	19.994	103.147	19.940	0.863	0.514
704.500	432.966	80.008	19.993	103.149	19.936	1.190	0.515
704.999	433.220	80.007	19.995	103.157	19.938	1.061	0.523
705.499	433.472	80.007	19.994	103.172	19.937	1.111	0.517
705.999	433.783	80.010	19.994	103.186	19.938	1.020	0.534
706.499	433.970	80.008	19.997	103.190	19.939	0.968	0.530
706.999	434.242	80.005	19.994	103.183	19.939	0.974	0.478
707.499	434.510	80.010	19.989	103.177	19.934	1.355	0.500
707.999	434.782	80.008	19.995	103.169	19.937	1.088	0.540
708.499	435.018	80.009	19.994	103.175	19.938	1.038	0.524
709.000	435.279	80.010	20.000	103.186	19.943	0.716	0.503
709.500	435.534	80.007	19.995	103.199	19.942	0.778	0.506
709.999	435.745	80.005	20.003	103.207	19.938	1.022	0.491
710.499	436.014	80.007	20.002	103.209	19.938	1.045	0.473
710.999	436.276	80.009	19.995	103.195	19.941	0.805	0.506
711.499	436.548	80.010	19.993	103.187	19.938	1.070	0.533
711.999	436.801	80.007	19.995	103.182	19.937	1.126	0.529
712.499	437.044	80.006	19.996	103.178	19.939	0.933	0.510
712.999	437.286	80.010	19.994	103.176	19.940	0.927	0.490
713.499	437.532	80.006	19.995	103.178	19.941	0.844	0.486
713.999	437.797	80.007	19.990	103.178	19.940	0.920	0.500
714.500	438.063	80.007	19.993	103.182	19.940	0.918	0.521
715.000	438.302	80.008	19.992	103.184	19.938	1.063	0.518
715.499	438.569	80.007	19.994	103.185	19.941	0.803	0.506
715.999	438.838	80.009	19.992	103.179	19.941	0.854	0.521
716.499	439.073	80.004	19.995	103.177	19.938	1.051	0.520
717.000	439.312	80.006	19.993	103.180	19.944	0.629	0.489
717.500	439.552	79.998	19.998	103.185	19.943	0.670	0.477
717.999	439.833	80.011	19.991	103.191	19.944	0.592	0.500
718.499	440.113	80.005	19.995	103.202	19.944	0.641	0.541
718.999	440.325	80.008	19.994	103.210	19.946	0.470	0.527
719.500	440.583	80.004	19.991	103.206	19.945	0.530	0.482
720.000	440.840	80.011	19.993	103.203	19.941	0.794	0.493
720.499	441.077	80.000	19.994	103.198	19.944	0.581	0.504
720.999	441.349	80.010	20.001	103.191	19.944	0.585	0.501
721.499	441.579	80.004	19.995	103.184	19.944	0.592	0.506
721.999	441.858	80.005	19.997	103.181	19.947	0.430	0.506
722.499	442.113	80.008	19.995	103.178	19.944	0.584	0.522
723.000	442.353	80.009	19.997	103.177	19.944	0.579	0.514
723.500	442.649	80.008	19.997	103.179	19.946	0.486	0.516
723.999	442.877	80.007	19.999	103.187	19.943	0.695	0.530
724.499	443.126	80.006	19.996	103.189	19.947	0.404	0.500
724.999	443.363	80.009	19.995	103.194	19.951	0.097	0.482
725.499	443.661	80.004	19.992	103.194	19.947	0.424	0.510
725.999	443.888	80.004	19.995	103.192	19.948	0.337	0.530
726.499	444.111	80.006	19.995	103.185	19.952	0.068	0.488
726.999	444.376	80.007	19.998	103.181	19.949	0.246	0.469
727.499	444.631	80.003	19.999	103.179	19.948	0.325	0.504
727.999	444.893	80.006	19.995	103.181	19.947	0.395	0.519
728.499	445.200	80.009	19.996	103.181	19.949	0.225	0.543
728.999	445.438	80.004	19.998	103.181	19.949	0.240	0.557
729.499	445.689	80.007	19.998	103.185	19.951	0.122	0.517
729.999	445.916	80.005	19.999	103.187	19.947	0.418	0.484
730.500	446.174	80.008	19.994	103.190	19.956	-0.256	0.481
731.000	446.450	80.006	19.998	103.196	19.950	0.207	0.510
731.499	446.708	80.005	20.000	103.201	19.950	0.182	0.534
731.999	446.952	80.008	19.993	103.201	19.949	0.225	0.517
732.499	447.239	80.009	19.998	103.197	19.952	0.054	0.517
732.999	447.469	80.005	19.998	103.188	19.953	-0.015	0.524
733.499	447.750	80.006	19.994	103.169	19.950	0.167	0.514
733.999	447.985	80.008	19.995	103.159	19.957	-0.283	0.513
734.499	448.251	80.008	19.996	103.160	19.952	0.060	0.509
734.999	448.507	80.009	19.995	103.158	19.955	-0.196	0.512
735.499	448.774	80.006	19.995	103.157	19.952	0.043	0.523
735.999	449.002	80.011	19.995	103.177	19.953	-0.029	0.509
736.499	449.241	80.007	19.996	103.191	19.952	0.017	0.481
736.999	449.487	80.004	19.994	103.189	19.955	-0.141	0.476
737.499	449.769	80.013	19.995	103.192	19.956	-0.269	0.506
737.999	450.033	80.009	19.997	103.197	19.958	-0.352	0.537
738.499	450.279	80.010	19.994	103.192	19.957	-0.329	0.528
738.999	450.613	80.011	19.995	103.183	19.955	-0.151	0.545
739.499	450.817	80.007	19.994	103.184	19.959	-0.468	0.559
739.999	451.076	80.008	19.996	103.183	19.957	-0.345	0.501
740.499	451.355	80.009	19.995	103.183	19.955	-0.180	0.500
741.000	451.593	80.007	19.995	103.182	19.953	-0.060	0.527
741.500	451.827	80.008	19.994	103.183	19.954	-0.132	0.494
741.999	452.084	80.007	19.995	103.179	19.956	-0.215	0.481
742.499	452.346	80.007	19.995	103.181	19.957	-0.333	0.505
742.999	452.627	80.008	19.994	103.188	19.958	-0.393	0.531
743.499	452.871	80.007	19.995	103.195	19.954	-0.114	0.534
743.999	453.055	80.006	19.995	103.202	19.957	-0.290	0.476
744.499	453.348	80.010	19.993	103.206	19.958	-0.374	0.452
744.999	453.594	80.006	19.992	103.207	19.958	-0.376	0.508
745.499	453.886	80.008	19.993	103.201	19.961	-0.590	0.539
745.999	454.157	80.005	19.994	103.194	19.957	-0.321	0.551
746.499	454.410	80.008	19.994	103.186	19.960	-0.509	0.544
746.999	454.672	80.009	19.993	103.184	19.961	-0.600	0.519
747.499	454.921	80.008	19.994	103.189	19.957	-0.323	0.513
747.999	455.181	80.008	19.994	103.195	19.959	-0.451	0.510
748.499	455.442	80.009	19.996	103.202	19.958	-0.352	0.515
748.999	455.714	80.007	19.994	103.204	19.964	-0.840	0.527
749.499	455.947	80.009	19.993	103.203	19.961	-0.623	0.519
749.999	456.174	80.008	19.994	103.196	19.960	-0.536	0.483
750.500	456.467	80.003	19.996	103.194	19.962	-0.637	0.490
751.000	456.730	80.008	19.996	103.190	19.962	-0.654	0.538
751.499	456.965	80.007	19.993	103.189	19.964	-0.819	0.527
751.999	457.222	80.007	19.994	103.188	19.961	-0.598	0.495
752.499	457.525	80.007	19.994	103.188	19.963	-0.772	0.526
752.999	457.743	80.010	19.990	103.190	19.960	-0.534	0.540
753.499	458.005	80.009	19.994	103.192	19.961	-0.598	0.500
753.999	458.277	80.009	19.994	103.196	19.962	-0.677	0.507
754.499	458.518	80.007	19.992	103.200	19.964	-0.809	0.523
754.999	458.755	80.008	19.993	103.200	19.964	-0.784	0.495
755.499	459.055	80.008	19.994	103.192	19.963	-0.761	0.508
755.999	459.322	80.009	19.990	103.186	19.962	-0.648	0.553
756.499	459.533	80.012	19.992	103.183	19.961	-0.592	0.523
756.999	459.811	80.010	19.994	103.185	19.964	-0.790	0.483
757.499	460.032	80.009	19.995	103.188	19.963	-0.724	0.494
758.000	460.281	80.009	19.993	103.188	19.965	-0.846	0.485
758.500	460.546	80.008	19.993	103.187	19.966	-0.937	0.492
759.000	460.820	80.011	19.996	103.185	19.961	-0.629	0.526
759.500	461.085	80.009	19.993	103.180	19.964	-0.825	0.539
760.000	461.343	80.011	19.994	103.176	19.966	-0.985	0.531
760.499	461.595	80.008	19.992	103.181	19.964	-0.790	0.516
760.999	461.873	80.007	19.994	103.188	19.969	-1.169	0.520
761.499	462.113	80.010	19.993	103.193	19.965	-0.912	0.524
761.999	462.364	80.007	19.994	103.199	19.965	-0.904	0.505
762.499	462.632	80.008	19.993	103.201	19.966	-0.931	0.505
762.999	462.909	80.010	19.994	103.195	19.962	-0.697	0.532
763.499	463.097	80.008	19.994	103.191	19.970	-1.219	0.505
763.999	463.411	80.010	19.994	103.186	19.967	-1.043	0.484
764.499	463.642	80.009	19.994	103.178	19.968	-1.117	0.524
764.999	463.896	80.009	19.994	103.176	19.965	-0.881	0.515
765.499	464.127	80.008	19.994	103.175	19.965	-0.867	0.485
765.999	464.405	80.007	19.993	103.173	19.966	-0.925	0.496
766.499	464.661	80.008	19.994	103.173	19.966	-0.960	0.521
766.999	464.868	80.007	19.993	103.173	19.969	-1.152	0.498
767.499	465.148	80.008	19.994	103.177	19.972	-1.345	0.475
767.999	465.393	80.007	19.993	103.177	19.970	-1.254	0.507
768.499	465.658	80.006	19.995	103.180	19.970	-1.247	0.518
768.999	465.901	80.005	19.993	103.180	19.969	-1.173	0.508
769.499	466.191	80.006	19.996	103.180	19.972	-1.359	0.521
769.999	466.452	80.007	19.994	103.177	19.970	-1.239	0.543
770.499	466.645	80.007	19.994	103.179	19.969	-1.165	0.502
770.999	466.901	80.005	19.997	103.176	19.967	-1.030	0.451
771.499	467.185	80.006	19.995	103.180	19.970	-1.229	0.494
771.999	467.455	80.007	19.994	103.184	19.968	-1.099	0.547
772.499	467.690	80.006	19.994	103.190	19.972	-1.384	0.529
772.999	467.964	80.008	19.994	103.191	19.973	-1.429	0.507
773.499	468.239	80.008	19.995	103.192	19.971	-1.324	0.529
773.999	468.480	80.005	19.995	103.189	19.974	-1.506	0.533
774.499	468.726	80.008	19.995	103.184	19.971	-1.287	0.502
774.999	468.954	80.004	20.001	103.178	19.974	-1.525	0.480
775.499	469.279	80.006	19.993	103.175	19.976	-1.672	0.513
775.999	469.509	80.005	19.997	103.175	19.976	-1.635	0.554
776.499	469.752	80.005	19.993	103.175	19.976	-1.682	0.514
776.999	470.017	80.006	19.993	103.176	19.977	-1.721	0.491
777.499	470.291	80.007	19.995	103.175	19.976	-1.637	0.523
777.999	470.518	80.004	19.994	103.177	19.977	-1.742	0.520
778.499	470.789	80.009	19.994	103.179	19.978	-1.802	0.499
778.999	471.033	80.005	19.995	103.181	19.979	-1.843	0.506
779.499	471.292	80.007	19.993	103.186	19.977	-1.752	0.509
780.000	471.542	80.008	19.995	103.192	19.976	-1.634	0.506
780.500	471.793	80.006	19.995	103.195	19.975	-1.610	0.505
780.999	472.018	80.010	19.996	103.193	19.972	-1.376	0.488
781.499	472.326	80.010	19.994	103.191	19.976	-1.682	0.505
781.999	472.564	80.010	19.993	103.187	19.973	-1.461	0.540
782.499	472.827	80.007	19.995	103.183	19.974	-1.487	0.523
782.999	473.083	80.008	19.995	103.185	19.975	-1.576	0.510
783.499	473.375	80.006	19.996	103.189	19.976	-1.643	0.534
783.999	473.585	80.008	19.994	103.191	19.978	-1.806	0.525
784.499	473.857	80.007	19.995	103.193	19.979	-1.899	0.492
784.999	474.124	80.008	19.993	103.190	19.979	-1.843	0.511
785.499	474.370	80.008	19.993	103.184	19.979	-1.897	0.526
786.000	474.616	80.007	19.994	103.179	19.978	-1.779	0.502
786.500	474.902	80.009	19.997	103.176	19.978	-1.790	0.512
786.999	475.186	80.006	19.995	103.175	19.982	-2.098	0.551
787.499	475.416	80.008	19.995	103.178	19.977	-1.734	0.542
787.999	475.725	80.007	19.994	103.177	19.979	-1.843	0.526
788.499	475.941	80.006	19.996	103.176	19.980	-1.939	0.532
788.999	476.200	80.007	19.994	103.178	19.979	-1.846	0.500
789.499	476.482	80.006	19.995	103.182	19.980	-1.945	0.508
790.000	476.733	80.007	19.995	103.179	19.982	-2.054	0.537
790.500	476.960	80.008	19.995	103.181	19.979	-1.850	0.505
790.999	477.219	80.005	19.997	103.182	19.977	-1.721	0.482
791.499	477.498	80.006	19.995	103.180	19.979	-1.872	0.513
791.999	477.749	80.007	19.995	103.180	19.981	-2.044	0.534
792.500	478.000	80.010	19.993	103.183	19.980	-1.970	0.516
793.000	478.248	80.004	19.994	103.182	19.980	-1.959	0.500
793.499	478.530	80.008	19.995	103.183	19.977	-1.732	0.514
793.999	478.736	80.005	19.995	103.185	19.980	-1.936	0.509
794.499	478.981	80.007	19.994	103.183	19.980	-1.930	0.469
794.999	479.241	80.006	19.995	103.183	19.977	-1.730	0.478
795.499	479.514	80.004	19.994	103.183	19.984	-2.232	0.519
795.999	479.759	80.005	19.993	103.182	19.985	-2.307	0.526
796.499	480.029	80.006	19.995	103.180	19.983	-2.195	0.517
797.000	480.244	80.006	19.996	103.179	19.983	-2.152	0.500
797.500	480.504	80.005	19.996	103.178	19.981	-2.005	0.480
798.000	480.799	80.008	19.994	103.179	19.982	-2.117	0.515
798.500	481.022	80.006	19.996	103.180	19.981	-2.005	0.536
798.999	481.264	80.005	19.994	103.179	19.984	-2.226	0.491
799.500	481.555	80.011	19.994	103.179	19.980	-1.941	0.499
800.000	481.785	80.003	19.996	103.178	19.982	-2.098	0.527
800.500	482.058	80.007	19.995	103.177	19.982	-2.102	0.512
801.000	482.300	80.005	19.996	103.176	19.982	-2.118	0.509
801.500	482.547	80.007	19.995	103.178	19.984	-2.224	0.502
801.999	482.819	80.006	19.995	103.178	19.984	-2.243	0.504
802.499	483.067	80.005	19.994	103.180	19.982	-2.090	0.519
802.999	483.296	80.005	19.994	103.182	19.985	-2.319	0.499
803.500	483.550	80.005	19.995	103.182	19.982	-2.090	0.480
804.000	483.810	80.007	19.996	103.181	19.987	-2.435	0.498
804.499	484.032	80.006	19.994	103.181	19.986	-2.352	0.498
804.999	484.288	80.007	19.994	103.178	19.986	-2.400	0.480
805.499	484.564	80.008	19.995	103.177	19.984	-2.245	0.506
805.999	484.806	80.006	19.995	103.178	19.987	-2.474	0.526
806.499	485.036	80.006	19.996	103.178	19.984	-2.261	0.495
806.999	485.265	80.007	19.994	103.179	19.981	-2.028	0.465
807.499	485.576	80.006	19.996	103.178	19.985	-2.280	0.500
807.999	485.775	80.006	19.994	103.176	19.986	-2.394	0.525
808.499	486.082	80.006	19.995	103.177	19.985	-2.286	0.508
808.999	486.331	80.006	19.995	103.176	19.988	-2.524	0.531
809.499	486.603	80.007	19.995	103.176	19.984	-2.228	0.538
809.999	486.859	80.007	19.994	103.177	19.986	-2.350	0.524
810.499	487.079	80.006	19.995	103.181	19.986	-2.379	0.503
810.999	487.322	80.007	19.994	103.181	19.984	-2.251	0.470
811.500	487.602	80.008	19.996	103.182	19.984	-2.217	0.493
812.000	487.847	80.005	19.993	103.182	19.988	-2.540	0.524
812.500	488.099	80.007	19.995	103.181	19.987	-2.447	0.511
813.000	488.367	80.007	19.995	103.181	19.988	-2.495	0.509
813.499	488.586	80.008	19.996	103.179	19.986	-2.344	0.503
813.999	488.859	80.009	19.997	103.178	19.986	-2.342	0.489
814.499	489.133	80.006	19.995	103.177	19.985	-2.299	0.519
815.000	489.386	80.009	19.995	103.179	19.988	-2.522	0.537
815.500	489.649	80.004	19.996	103.177	19.984	-2.204	0.522
815.999	489.903	80.008	19.995	103.177	19.985	-2.317	0.516
816.499	490.140	80.007	19.996	103.178	19.985	-2.282	0.504
816.999	490.417	80.008	19.994	103.178	19.987	-2.473	0.503
817.499	490.669	80.006	19.993	103.176	19.986	-2.338	0.522
817.999	490.909	80.007	19.996	103.176	19.988	-2.533	0.511
818.499	491.125	80.007	19.996	103.176	19.988	-2.530	0.474
818.999	491.445	80.007	19.994	103.176	19.983	-2.168	0.496
819.499	491.667	80.008	19.995	103.177	19.987	-2.427	0.539
819.999	491.926	80.007	19.995	103.178	19.988	-2.495	0.511
820.499	492.123	80.007	19.994	103.180	19.990	-2.646	0.468
820.999	492.373	80.007	19.996	103.181	19.987	-2.462	0.451
821.499	492.706	80.007	19.995	103.185	19.989	-2.570	0.515
821.999	492.922	80.008	19.995	103.191	19.987	-2.435	0.566
822.499	493.151	80.005	19.996	103.195	19.986	-2.346	0.497
822.999	493.460	80.005	19.997	103.193	19.986	-2.359	0.492
823.500	493.717	80.006	19.994	103.192	19.990	-2.642	0.552
824.000	493.959	80.006	19.996	103.189	19.988	-2.508	0.532
824.499	494.238	80.007	19.995	103.181	19.988	-2.537	0.510
824.999	494.465	80.008	19.995	103.176	19.990	-2.638	0.514
825.499	494.770	80.007	19.998	103.177	19.986	-2.363	0.519
825.999	494.971	80.005	19.995	103.176	19.988	-2.520	0.519
826.499	495.251	80.006	19.995	103.174	19.990	-2.673	0.494
827.000	495.526	80.008	19.997	103.174	19.987	-2.452	0.518
827.500	495.772	80.007	19.995	103.173	19.989	-2.590	0.538
827.999	496.029	80.008	19.995	103.170	19.988	-2.522	0.512
828.499	496.280	80.006	19.995	103.170	19.990	-2.648	0.505
828.999	496.558	80.007	19.995	103.171	19.990	-2.655	0.518
829.499	496.764	80.007	19.995	103.170	19.987	-2.475	0.507
830.000	497.038	80.007	19.995	103.171	19.988	-2.541	0.482
830.500	497.295	80.008	19.996	103.173	19.990	-2.648	0.506
830.999	497.575	80.006	19.995	103.174	19.987	-2.464	0.534
831.499	497.821	80.008	19.995	103.174	19.990	-2.665	0.531
832.000	498.064	80.007	19.994	103.175	19.989	-2.590	0.507
832.500	498.361	80.008	19.994	103.175	19.989	-2.592	0.514
832.999	498.551	80.008	19.994	103.174	19.991	-2.762	0.513
833.499	498.820	80.008	19.996	103.172	19.989	-2.562	0.473
833.999	499.108	80.011	19.995	103.171	19.991	-2.729	0.508
834.499	499.355	80.008	19.995	103.168	19.988	-2.516	0.546
834.999	499.650	80.008	19.993	103.167	19.987	-2.454	0.539
835.499	499.890	80.010	19.994	103.168	19.991	-2.708	0.539
836.000	500.165	80.009	19.995	103.169	19.991	-2.719	0.525
836.500	500.414	80.010	19.994	103.171	19.991	-2.749	0.519
836.999	500.665	80.010	19.993	103.172	19.993	-2.843	0.512
837.499	500.954	80.009	19.993	103.172	19.992	-2.803	0.520
837.999	501.181	80.009	19.994	103.173	19.995	-3.023	0.528
838.499	501.433	80.007	19.995	103.172	19.993	-2.843	0.498
838.999	501.712	80.008	19.994	103.171	19.992	-2.764	0.505
839.499	501.960	80.009	19.993	103.172	19.994	-2.913	0.529
839.999	502.219	80.008	19.993	103.172	19.994	-2.967	0.517
840.499	502.485	80.009	19.994	103.171	19.990	-2.626	0.516
840.999	502.731	80.008	19.993	103.171	19.993	-2.876	0.518
841.499	503.001	80.010	19.993	103.171	19.997	-3.147	0.514
841.999	503.247	80.009	19.994	103.172	19.994	-2.975	0.516
842.499	503.487	80.011	19.993	103.172	19.994	-2.932	0.501
842.999	503.740	80.011	19.993	103.173	19.996	-3.114	0.489
843.499	504.009	80.007	19.995	103.173	19.995	-2.981	0.507
843.999	504.262	80.013	19.993	103.173	19.998	-3.199	0.522
844.499	504.544	80.012	19.994	103.172	19.999	-3.313	0.529
844.999	504.794	80.012	19.993	103.172	19.998	-3.199	0.533
845.499	505.043	80.014	19.994	103.173	19.997	-3.182	0.515
845.999	505.297	80.010	19.994	103.174	19.998	-3.199	0.501
846.499	505.547	80.009	19.994	103.176	19.997	-3.147	0.504
846.999	505.828	80.010	19.994	103.180	19.996	-3.106	0.518
847.499	506.075	80.005	19.993	103.181	19.995	-3.031	0.529
847.999	506.357	80.008	19.994	103.180	19.993	-2.849	0.528
848.499	506.658	80.006	19.993	103.179	19.998	-3.207	0.556
849.000	506.865	80.006	19.995	103.178	19.994	-2.957	0.545
849.500	507.151	80.004	19.996	103.172	19.994	-2.963	0.501
849.999	507.383	80.006	19.994	103.170	19.996	-3.085	0.506
850.499	507.647	80.007	19.995	103.169	19.997	-3.168	0.508
850.999	507.904	80.007	19.995	103.170	19.997	-3.186	0.509
851.499	508.175	80.008	19.994	103.169	19.995	-2.994	0.524
851.999	508.419	80.007	19.994	103.170	19.999	-3.310	0.521
852.499	508.736	80.005	19.995	103.171	19.995	-3.031	0.538
852.999	508.966	80.009	19.994	103.172	19.991	-2.710	0.554
853.499	509.232	80.006	19.995	103.172	19.992	-2.783	0.522
853.999	509.510	80.008	19.993	103.173	19.994	-2.944	0.520
854.500	509.782	79.998	20.002	103.174	19.994	-2.975	0.547
855.000	510.010	80.004	19.995	103.172	19.994	-2.954	0.525
855.499	510.298	80.007	19.993	103.171	19.997	-3.159	0.508
855.999	510.611	80.006	19.998	103.171	19.997	-3.155	0.558
856.499	510.824	80.011	19.994	103.171	19.997	-3.134	0.563
856.999	511.048	80.008	19.994	103.172	19.998	-3.248	0.481
857.499	511.329	80.008	19.996	103.174	19.998	-3.250	0.471
857.999	511.567	80.008	19.993	103.175	19.996	-3.105	0.512
858.499	511.874	80.008	19.994	103.176	20.000	-3.381	0.532
858.999	512.126	80.009	19.994	103.176	19.996	-3.105	0.551
859.499	512.321	80.006	19.994	103.176	19.997	-3.130	0.503
859.999	512.597	80.007	19.995	103.175	19.998	-3.256	0.459
860.499	512.844	80.006	19.995	103.175	19.996	-3.099	0.497
860.999	513.086	80.006	19.996	103.174	19.999	-3.294	0.506
861.499	513.380	80.007	19.995	103.172	19.999	-3.300	0.513
861.999	513.638	80.007	19.995	103.172	19.996	-3.079	0.543
862.500	513.888	80.010	19.994	103.173	20.000	-3.364	0.530
863.000	514.150	80.008	19.995	103.174	19.997	-3.190	0.510
863.500	514.451	80.008	19.994	103.174	19.995	-3.014	0.537
863.999	514.712	80.007	19.994	103.176	19.991	-2.745	0.562
864.499	515.009	80.007	19.995	103.177	19.993	-2.865	0.560
864.999	515.253	80.008	19.994	103.176	19.995	-3.019	0.550
865.499	515.494	80.006	19.994	103.176	19.996	-3.056	0.513
865.999	515.769	80.007	19.993	103.177	19.998	-3.209	0.501
866.499	515.949	80.005	19.996	103.177	19.996	-3.056	0.486
866.999	516.270	80.008	19.996	103.176	19.996	-3.107	0.478
867.499	516.520	80.007	19.994	103.175	19.998	-3.225	0.536
867.999	516.806	80.004	19.995	103.176	19.997	-3.145	0.553
868.499	517.049	80.012	19.995	103.176	19.996	-3.108	0.532
868.999	517.291	80.003	19.995	103.175	19.997	-3.124	0.507
869.499	517.569	80.007	19.994	103.175	19.992	-2.830	0.503
870.000	517.841	80.006	19.993	103.177	19.999	-3.283	0.535
870.500	518.107	80.006	19.994	103.176	19.996	-3.101	0.544
870.999	518.347	80.007	19.994	103.176	19.996	-3.049	0.522
871.499	518.600	80.004	19.996	103.178	20.003	-3.589	0.500
872.000	518.851	80.006	19.994	103.178	19.999	-3.263	0.498
872.500	519.098	80.005	19.994	103.179	20.000	-3.337	0.501
872.999	519.400	80.012	19.993	103.180	20.000	-3.385	0.524
873.499	519.642	80.008	19.993	103.183	19.999	-3.283	0.547
873.999	519.879	80.005	19.994	103.183	19.999	-3.329	0.511
874.499	520.118	80.007	19.993	103.183	20.001	-3.407	0.478
874.999	520.408	80.011	19.992	103.182	20.001	-3.418	0.503
875.499	520.650	80.008	19.993	103.183	20.000	-3.360	0.530
875.999	520.927	80.006	19.993	103.180	20.001	-3.434	0.526
876.499	521.156	80.009	19.994	103.179	20.002	-3.482	0.513
876.999	521.413	80.007	19.995	103.180	19.997	-3.174	0.496
877.500	521.664	80.005	19.994	103.179	20.003	-3.602	0.497
878.000	521.891	80.006	19.994	103.177	20.002	-3.530	0.493
878.499	522.153	80.006	19.994	103.177	20.001	-3.410	0.483
878.999	522.426	80.007	19.994	103.177	20.001	-3.447	0.512
879.500	522.667	80.005	19.994	103.177	20.002	-3.505	0.525
880.000	522.942	80.006	19.994	103.179	20.002	-3.538	0.515
880.500	523.224	80.005	19.995	103.181	20.000	-3.366	0.536
881.000	523.450	80.006	19.994	103.181	19.999	-3.286	0.532
881.499	523.697	80.006	19.994	103.181	20.003	-3.565	0.491
881.999	523.966	80.009	19.995	103.182	20.000	-3.356	0.495
882.500	524.214	80.005	19.994	103.180	20.003	-3.581	0.516
883.000	524.509	80.005	19.994	103.179	20.000	-3.385	0.530
883.499	524.722	80.007	19.994	103.179	19.999	-3.313	0.525
883.999	525.016	80.005	19.995	103.179	19.997	-3.166	0.508
884.499	525.274	80.007	19.994	103.179	19.997	-3.186	0.529
884.999	525.513	80.005	19.995	103.178	20.002	-3.544	0.524
885.499	525.793	80.005	19.995	103.178	19.999	-3.281	0.509
885.999	526.039	80.007	19.993	103.175	20.002	-3.542	0.523
886.499	526.300	80.004	19.995	103.175	20.003	-3.588	0.517
886.999	526.552	80.006	19.994	103.175	20.006	-3.790	0.510
887.499	526.830	80.006	19.995	103.175	20.004	-3.643	0.521
887.999	527.113	80.007	19.995	103.175	20.005	-3.706	0.545
888.499	527.336	80.007	19.995	103.177	20.001	-3.464	0.534
889.000	527.585	80.007	19.995	103.176	20.003	-3.577	0.489
889.500	527.872	80.005	19.995	103.175	20.002	-3.487	0.504
889.999	528.154	80.008	19.995	103.174	20.002	-3.505	0.553
890.499	528.390	80.008	19.995	103.172	20.002	-3.536	0.544
890.999	528.622	80.006	19.995	103.168	20.004	-3.617	0.493
891.499	528.877	80.005	19.998	103.168	20.002	-3.528	0.477
891.999	529.162	80.007	19.996	103.167	20.002	-3.513	0.513
892.499	529.426	80.007	19.996	103.168	20.002	-3.536	0.544
892.999	529.656	80.007	19.995	103.170	20.002	-3.538	0.522
893.499	529.910	80.010	19.995	103.173	20.004	-3.672	0.489
893.999	530.236	80.007	19.994	103.173	20.002	-3.521	0.532
894.499	530.428	80.008	19.996	103.173	20.002	-3.522	0.549
894.999	530.691	80.008	19.993	103.173	20.003	-3.561	0.486
895.500	530.963	80.009	19.994	103.172	20.005	-3.755	0.494
896.000	531.229	80.009	19.994	103.172	20.005	-3.728	0.536
896.499	531.461	80.008	19.995	103.172	20.005	-3.755	0.518
896.999	531.733	80.008	19.992	103.173	20.004	-3.633	0.501
897.499	531.990	80.008	19.996	103.173	20.002	-3.542	0.516
897.999	532.236	80.009	19.994	103.174	20.001	-3.418	0.516
898.499	532.491	80.004	19.995	103.174	20.004	-3.656	0.503
898.999	532.725	80.007	19.995	103.173	20.002	-3.514	0.495
899.500	533.041	80.009	19.996	103.173	20.004	-3.681	0.519
900.000	533.295	80.006	19.996	103.169	20.004	-3.660	0.560
900.499	533.563	80.009	19.995	103.164	20.006	-3.814	0.546
900.999	533.812	80.010	19.995	103.161	20.003	-3.613	0.519
901.499	534.066	80.004	19.993	103.162	20.007	-3.900	0.510
901.999	534.347	80.011	19.994	103.163	20.004	-3.619	0.520
902.499	534.609	80.004	19.996	103.166	20.004	-3.687	0.539
902.999	534.892	80.008	19.995	103.171	20.006	-3.758	0.544
903.499	535.096	80.006	19.996	103.172	20.004	-3.671	0.516
903.999	535.371	80.009	19.994	103.172	20.004	-3.646	0.483
904.499	535.622	80.011	19.995	103.172	20.003	-3.594	0.502
905.000	535.899	80.009	19.994	103.172	20.006	-3.818	0.527
905.500	536.162	80.006	19.995	103.169	20.005	-3.700	0.534
905.999	536.405	80.009	19.994	103.170	20.006	-3.791	0.523
906.499	536.631	80.009	19.994	103.170	20.004	-3.675	0.488
906.999	536.878	80.007	19.995	103.170	20.001	-3.433	0.471
907.499	537.155	80.007	19.996	103.171	20.004	-3.633	0.498
907.999	537.398	80.007	19.994	103.174	20.004	-3.654	0.522
908.499	537.669	80.007	19.996	103.174	20.002	-3.519	0.517
908.999	537.919	80.007	19.995	103.172	20.005	-3.720	0.517
909.499	538.159	80.006	19.995	103.166	20.006	-3.811	0.505
909.999	538.460	80.007	19.995	103.165	20.008	-3.934	0.516
910.499	538.694	80.011	19.996	103.164	20.007	-3.842	0.538
910.999	538.942	80.009	19.995	103.164	20.006	-3.780	0.509
911.499	539.230	80.007	19.995	103.165	20.005	-3.706	0.509
911.999	539.482	80.008	19.995	103.168	20.004	-3.631	0.538
912.499	539.751	80.010	19.995	103.168	20.002	-3.520	0.531
912.999	540.002	80.008	19.996	103.168	20.003	-3.586	0.521
913.499	540.257	80.009	19.994	103.168	20.002	-3.482	0.513
913.999	540.481	80.009	19.995	103.168	20.004	-3.679	0.492
914.499	540.770	80.008	19.995	103.168	20.008	-3.969	0.496
915.000	541.005	80.009	19.996	103.166	20.004	-3.644	0.518
915.500	541.308	80.008	19.996	103.164	20.006	-3.788	0.531
916.000	541.510	80.008	19.997	103.165	20.004	-3.650	0.522
916.500	541.786	80.009	19.996	103.164	20.005	-3.724	0.491
917.000	542.036	80.008	19.995	103.165	20.007	-3.840	0.502
917.500	542.320	80.008	19.996	103.168	20.004	-3.677	0.530
918.000	542.549	80.007	19.995	103.169	20.006	-3.778	0.524
918.499	542.787	80.009	19.995	103.169	20.006	-3.778	0.490
919.000	543.036	80.009	19.995	103.170	20.005	-3.698	0.477
919.500	543.312	80.007	19.997	103.171	20.003	-3.586	0.506
919.999	543.557	80.009	19.995	103.168	20.004	-3.650	0.523
920.499	543.840	80.009	19.995	103.168	20.004	-3.646	0.524
920.999	544.059	80.009	19.995	103.164	20.003	-3.582	0.515
921.499	544.309	80.006	19.995	103.165	20.004	-3.635	0.485
921.999	544.574	80.006	19.994	103.164	20.006	-3.766	0.492
922.499	544.834	80.010	19.995	103.165	20.007	-3.852	0.520
923.000	545.095	80.007	19.994	103.163	20.007	-3.867	0.523
923.500	545.352	80.008	19.995	103.165	20.005	-3.739	0.520
923.999	545.600	80.008	19.994	103.165	20.006	-3.816	0.512
924.499	545.833	80.008	19.995	103.165	20.010	-4.076	0.494
924.999	546.079	80.008	19.994	103.166	20.007	-3.863	0.480
925.499	546.329	80.009	19.994	103.169	20.008	-3.942	0.487
925.999	546.609	80.007	19.994	103.171	20.009	-3.987	0.512
926.499	546.870	80.008	19.994	103.172	20.008	-3.943	0.535
926.999	547.134	80.006	19.996	103.172	20.008	-3.933	0.533
927.500	547.366	80.005	19.994	103.172	20.007	-3.873	0.510
928.000	547.670	80.007	19.995	103.169	20.009	-4.012	0.516
928.500	547.936	80.009	19.994	103.167	20.009	-3.985	0.553
928.999	548.136	80.006	19.995	103.165	20.008	-3.937	0.518
929.499	548.456	80.005	19.995	103.161	20.010	-4.074	0.493
929.999	548.674	80.008	19.995	103.162	20.007	-3.881	0.529
930.499	548.959	80.005	19.993	103.165	20.006	-3.817	0.520
930.999	549.173	80.007	19.995	103.167	20.007	-3.884	0.501
931.499	549.441	80.002	19.998	103.167	20.010	-4.059	0.491
932.000	549.695	80.005	19.995	103.172	20.012	-4.219	0.502
932.500	549.966	80.007	19.994	103.172	20.009	-3.989	0.524
932.999	550.209	80.004	19.991	103.172	20.007	-3.830	0.519
933.499	550.447	80.004	19.995	103.173	20.010	-4.049	0.497
933.999	550.715	80.008	19.993	103.173	20.006	-3.819	0.494
934.499	551.020	80.006	19.994	103.166	20.010	-4.099	0.540
934.999	551.230	80.007	19.992	103.165	20.007	-3.854	0.544
935.499	551.514	80.009	19.993	103.166	20.010	-4.066	0.504
935.999	551.776	80.004	19.992	103.166	20.005	-3.729	0.520
936.499	552.053	80.008	19.994	103.170	20.008	-3.938	0.542
936.999	552.292	80.006	19.995	103.177	20.011	-4.165	0.528
937.499	552.562	80.006	19.995	103.178	20.013	-4.291	0.512
937.999	552.804	80.008	19.994	103.177	20.011	-4.151	0.510
938.499	553.058	80.009	19.994	103.177	20.013	-4.277	0.504
938.999	553.327	80.008	19.993	103.176	20.010	-4.090	0.510
939.499	553.584	80.005	19.996	103.177	20.012	-4.212	0.525
939.999	553.861	80.006	19.995	103.176	20.014	-4.334	0.530
940.499	554.098	80.005	19.993	103.177	20.011	-4.177	0.524
941.000	554.382	80.007	19.994	103.176	20.012	-4.225	0.517
941.500	554.674	80.007	19.994	103.176	20.015	-4.444	0.548
941.999	554.890	80.006	19.994	103.175	20.016	-4.494	0.542
942.499	555.167	80.006	19.994	103.175	20.017	-4.567	0.501
943.000	555.412	80.007	19.994	103.175	20.017	-4.598	0.507
943.500	555.649	80.005	19.994	103.176	20.013	-4.312	0.502
943.999	555.904	80.007	19.994	103.177	20.015	-4.416	0.487
944.499	556.143	80.008	19.994	103.178	20.015	-4.411	0.493
945.000	556.439	80.007	19.994	103.179	20.016	-4.523	0.515
945.500	556.681	80.008	19.994	103.179	20.017	-4.595	0.537
945.999	556.962	80.007	19.994	103.176	20.016	-4.488	0.530
946.499	557.212	80.005	19.994	103.168	20.016	-4.498	0.527
946.999	557.459	80.005	19.996	103.164	20.018	-4.639	0.514
947.499	557.711	80.008	19.994	103.163	20.014	-4.370	0.498
947.999	557.976	80.007	19.995	103.164	20.013	-4.273	0.508
948.499	558.216	80.006	19.993	103.166	20.011	-4.138	0.511
948.999	558.493	80.006	19.996	103.172	20.012	-4.233	0.511
949.500	558.747	80.008	19.995	103.176	20.012	-4.188	0.524
950.000	559.011	80.004	19.994	103.175	20.012	-4.213	0.525
950.499	559.296	80.005	19.991	103.175	20.014	-4.337	0.534
950.999	559.499	80.005	19.998	103.176	20.010	-4.076	0.518
951.499	559.793	80.008	19.995	103.176	20.012	-4.231	0.493
951.999	560.064	80.005	19.993	103.176	20.013	-4.316	0.531
952.499	560.285	80.004	19.994	103.177	20.016	-4.531	0.529
952.999	560.558	80.008	19.994	103.173	20.015	-4.434	0.493
953.499	560.842	80.006	19.994	103.170	20.013	-4.285	0.525
953.999	561.103	80.009	19.994	103.169	20.013	-4.266	0.551
954.499	561.356	80.007	19.993	103.169	20.015	-4.424	0.530
954.999	561.617	80.006	19.997	103.168	20.015	-4.432	0.514
955.499	561.858	80.006	19.997	103.172	20.013	-4.326	0.508
955.999	562.124	80.005	19.997	103.172	20.014	-4.341	0.505
956.499	562.419	80.006	19.995	103.173	20.012	-4.246	0.534
957.000	562.656	80.007	19.995	103.172	20.013	-4.304	0.547
957.500	562.925	80.007	19.996	103.172	20.012	-4.198	0.519
957.999	563.157	80.008	19.995	103.173	20.011	-4.159	0.503
958.499	563.413	80.008	19.995	103.173	20.017	-4.562	0.494
958.999	563.657	80.009	19.996	103.173	20.015	-4.461	0.494
959.499	563.960	80.006	19.995	103.171	20.014	-4.345	0.523
959.999	564.182	80.008	19.995	103.169	20.014	-4.393	0.536
960.499	564.428	80.007	19.994	103.169	20.015	-4.467	0.497
960.999	564.714	80.008	19.995	103.166	20.015	-4.438	0.500
961.499	564.929	80.005	19.996	103.165	20.019	-4.713	0.516
962.000	565.193	80.007	19.995	103.163	20.017	-4.589	0.490
962.500	565.454	80.006	19.995	103.165	20.016	-4.517	0.502
962.999	565.682	80.007	19.994	103.165	20.015	-4.436	0.507
963.499	565.942	80.007	19.993	103.167	20.016	-4.480	0.488
963.999	566.191	80.007	19.994	103.168	20.014	-4.341	0.498
964.500	566.437	80.006	19.993	103.172	20.013	-4.304	0.502
965.000	566.710	80.008	19.993	103.172	20.015	-4.401	0.507
965.500	566.943	80.006	19.994	103.172	20.012	-4.223	0.512
966.000	567.226	80.008	19.994	103.172	20.016	-4.523	0.511
966.500	567.489	80.008	19.995	103.173	20.014	-4.393	0.531
967.000	567.765	80.007	19.994	103.173	20.014	-4.376	0.543
967.499	568.004	80.006	19.995	103.173	20.016	-4.531	0.527
967.999	568.251	80.008	19.994	103.173	20.017	-4.589	0.500
968.499	568.477	80.007	19.993	103.173	20.015	-4.422	0.479
968.999	568.757	80.007	19.994	103.171	20.016	-4.513	0.490
969.499	568.996	80.007	19.995	103.170	20.014	-4.379	0.513
969.999	569.285	80.009	19.994	103.171	20.015	-4.459	0.524
970.499	569.519	80.007	19.993	103.170	20.019	-4.737	0.525
970.999	569.751	80.007	19.994	103.167	20.017	-4.577	0.494
971.499	570.018	80.008	19.995	103.169	20.019	-4.720	0.482
971.999	570.282	80.008	19.994	103.168	20.018	-4.643	0.515
972.499	570.568	80.010	19.994	103.168	20.018	-4.639	0.541
972.999	570.830	80.007	19.994	103.168	20.021	-4.827	0.549
973.499	571.093	80.006	19.994	103.170	20.020	-4.792	0.536
973.999	571.333	80.008	19.994	103.170	20.018	-4.660	0.514
974.499	571.589	80.009	19.994	103.171	20.020	-4.757	0.499
974.999	571.840	80.008	19.994	103.171	20.018	-4.645	0.501
975.499	572.105	80.009	19.995	103.168	20.019	-4.697	0.512
975.999	572.369	80.008	19.994	103.166	20.019	-4.745	0.523
976.499	572.628	80.008	19.994	103.165	20.021	-4.879	0.526
977.000	572.870	80.009	19.993	103.165	20.018	-4.628	0.512
977.500	573.121	80.011	19.995	103.165	20.018	-4.618	0.497
977.999	573.380	80.008	19.993	103.168	20.017	-4.560	0.501
978.499	573.642	80.008	19.994	103.168	20.017	-4.562	0.515
978.999	573.870	80.008	19.994	103.169	20.018	-4.618	0.506
979.499	574.158	80.006	19.995	103.167	20.017	-4.598	0.503
979.999	574.428	80.009	19.994	103.163	20.016	-4.525	0.537
980.499	574.691	80.008	19.995	103.161	20.017	-4.546	0.545
980.999	574.921	80.008	19.995	103.161	20.016	-4.527	0.513
981.499	575.171	80.008	19.996	103.160	20.017	-4.575	0.486
982.000	575.443	80.006	19.996	103.161	20.021	-4.875	0.501
982.500	575.731	80.008	19.996	103.162	20.020	-4.802	0.541
982.999	575.976	80.007	19.995	103.164	20.019	-4.693	0.547
983.499	576.209	80.007	19.996	103.166	20.019	-4.743	0.506
983.999	576.491	80.012	19.995	103.167	20.018	-4.676	0.497
984.499	576.767	80.011	19.995	103.168	20.019	-4.714	0.537
985.000	577.030	80.002	19.995	103.168	20.020	-4.823	0.549
985.500	577.305	80.009	19.996	103.163	20.021	-4.825	0.538
986.000	577.502	80.009	19.995	103.164	20.017	-4.577	0.505
986.500	577.809	80.008	19.994	103.167	20.015	-4.426	0.488
987.000	578.066	80.011	19.994	103.167	20.020	-4.803	0.534
987.499	578.310	80.004	19.995	103.170	20.018	-4.648	0.533
987.999	578.558	80.006	19.995	103.173	20.019	-4.714	0.497
988.499	578.805	80.006	19.994	103.171	20.019	-4.685	0.493
988.999	579.062	80.008	19.995	103.170	20.021	-4.881	0.500
989.499	579.338	80.007	19.994	103.170	20.021	-4.895	0.518
989.999	579.588	80.005	19.994	103.167	20.020	-4.813	0.530
990.499	579.834	80.009	19.994	103.167	20.019	-4.730	0.511
990.999	580.093	80.008	19.993	103.169	20.020	-4.792	0.500
991.499	580.335	80.007	19.994	103.167	20.020	-4.759	0.503
991.999	580.610	80.007	19.994	103.166	20.017	-4.600	0.509
992.499	580.820	80.008	19.994	103.168	20.021	-4.842	0.501
992.999	581.065	80.007	19.994	103.170	20.021	-4.842	0.470
993.499	581.337	80.007	19.994	103.171	20.017	-4.595	0.486
993.999	581.580	80.009	19.995	103.168	20.020	-4.810	0.516
994.499	581.859	80.004	19.995	103.167	20.019	-4.695	0.519
995.000	582.100	80.009	19.995	103.164	20.019	-4.715	0.521
995.500	582.383	79.994	19.995	103.163	20.020	-4.800	0.522
995.999	582.630	80.013	19.993	103.160	20.018	-4.669	0.527
996.499	582.910	80.012	19.993	103.165	20.018	-4.670	0.529
997.000	583.088	80.006	19.994	103.163	20.018	-4.612	0.493
997.500	583.372	80.005	19.994	103.160	20.021	-4.873	0.460
997.999	583.648	80.009	19.994	103.157	20.020	-4.794	0.511
998.499	583.847	80.005	19.995	103.157	20.018	-4.666	0.517
998.999	584.162	80.008	19.994	103.156	20.019	-4.722	0.494
999.499	584.385	80.007	19.993	103.160	20.019	-4.719	0.526
999.999	584.629	80.010	19.994	103.166	20.018	-4.680	0.503
1000.499	584.910	80.007	19.994	103.169	20.020	-4.800	0.496
1000.999	585.145	80.013	19.994	103.167	20.021	-4.895	0.521
1001.499	585.390	80.007	19.993	103.167	20.019	-4.686	0.499
1001.999	585.612	80.009	19.994	103.166	20.018	-4.634	0.474
1002.499	585.869	80.008	19.995	103.164	20.020	-4.813	0.473
1002.999	586.167	80.007	19.994	103.166	20.018	-4.637	0.517
1003.499	586.427	80.011	19.994	103.168	20.020	-4.782	0.556
1004.000	586.698	80.004	19.996	103.169	20.021	-4.862	0.544
1004.500	586.933	80.011	19.994	103.168	20.020	-4.767	0.518
1004.999	587.176	80.008	19.994	103.172	20.019	-4.714	0.492
1005.500	587.415	80.014	19.996	103.173	20.018	-4.676	0.480
1006.000	587.653	80.007	19.998	103.177	20.024	-5.082	0.479
1006.499	587.932	80.009	19.996	103.178	20.023	-4.984	0.497
1007.000	588.170	80.005	19.994	103.179	20.020	-4.771	0.517
1007.500	588.446	80.002	19.996	103.177	20.021	-4.848	0.515
1007.999	588.640	80.010	19.996	103.175	20.021	-4.877	0.492
1008.499	588.918	80.010	19.996	103.170	20.023	-5.003	0.471
1008.999	589.204	80.004	19.995	103.168	20.019	-4.688	0.518
1009.499	589.433	80.006	19.996	103.169	20.024	-5.075	0.539
1009.999	589.673	80.006	19.995	103.170	20.021	-4.872	0.492
1010.499	589.949	80.006	19.995	103.171	20.021	-4.844	0.493
1010.999	590.213	80.005	19.996	103.173	20.021	-4.883	0.528
1011.499	590.458	80.004	19.995	103.175	20.020	-4.815	0.524
1011.999	590.731	80.000	19.995	103.175	20.022	-4.920	0.514
1012.500	590.973	80.008	19.995	103.174	20.020	-4.819	0.517
1013.000	591.242	80.001	19.995	103.175	20.020	-4.784	0.513
1013.500	591.465	80.005	19.994	103.174	20.019	-4.734	0.501
1014.000	591.723	80.006	19.994	103.169	20.018	-4.625	0.486
1014.500	591.975	80.006	19.995	103.168	20.023	-4.981	0.495
1015.000	592.226	80.007	19.994	103.169	20.022	-4.908	0.506
1015.499	592.500	80.005	19.996	103.165	20.023	-4.999	0.514
1015.999	592.749	80.006	19.997	103.166	20.023	-5.003	0.525
1016.499	592.994	80.008	19.996	103.171	20.023	-5.020	0.509
1016.999	593.236	80.009	19.994	103.173	20.026	-5.196	0.490
1017.499	593.517	80.006	19.996	103.174	20.022	-4.958	0.505
1017.999	593.781	80.005	19.996	103.176	20.025	-5.134	0.534
1018.499	594.036	80.011	19.994	103.174	20.028	-5.363	0.533
1018.999	594.274	80.005	19.996	103.175	20.024	-5.082	0.506
1019.499	594.563	80.005	19.996	103.175	20.024	-5.096	0.509
1019.999	594.835	80.016	19.995	103.173	20.024	-5.080	0.544
1020.500	595.054	80.005	19.995	103.176	20.024	-5.094	0.526
1021.000	595.309	80.009	19.994	103.176	20.022	-4.928	0.483
1021.500	595.573	80.008	19.994	103.174	20.024	-5.040	0.497
1022.000	595.845	80.000	19.996	103.175	20.027	-5.258	0.528
1022.499	596.115	80.009	19.995	103.172	20.027	-5.316	0.539
1022.999	596.349	80.000	19.995	103.170	20.022	-4.949	0.523
1023.499	596.583	80.005	19.994	103.168	20.026	-5.214	0.486
1023.999	596.869	80.005	19.995	103.166	20.022	-4.939	0.494
1024.499	597.096	80.004	19.995	103.164	20.022	-4.951	0.516
1024.999	597.384	80.005	19.995	103.166	20.023	-5.036	0.514
1025.500	597.584	80.007	19.994	103.165	20.020	-4.753	0.502
1026.000	597.899	80.008	19.994	103.167	20.020	-4.753	0.501
1026.499	598.125	80.005	19.994	103.169	20.027	-5.258	0.528
1026.999	598.376	80.006	19.995	103.169	20.023	-5.016	0.509
1027.499	598.626	80.003	19.995	103.166	20.021	-4.894	0.489
1028.000	598.909	80.006	19.994	103.167	20.023	-4.991	0.517
1028.500	599.148	80.011	19.994	103.167	20.024	-5.085	0.527
1028.999	599.439	80.006	19.995	103.168	20.024	-5.107	0.526
1029.500	599.681	80.008	19.994	103.168	20.023	-4.975	0.531
1030.000	599.951	80.009	19.994	103.170	20.023	-5.004	0.523
1030.499	600.230	80.005	19.994	103.171	20.023	-5.020	0.531
1030.999	600.476	80.018	19.992	103.170	20.023	-4.987	0.537
1031.499	600.733	80.008	19.994	103.172	20.024	-5.099	0.514
1031.999	601.064	80.002	19.994	103.172	20.024	-5.097	0.545
1032.499	601.241	80.012	19.993	103.167	20.023	-5.018	0.548
1032.999	601.525	80.010	19.993	103.165	20.025	-5.159	0.485
1033.500	601.758	80.004	19.994	103.169	20.023	-4.968	0.489
1034.000	602.025	80.003	19.995	103.165	20.025	-5.111	0.509
1034.499	602.251	80.008	19.995	103.164	20.022	-4.943	0.497
1034.999	602.527	80.003	19.994	103.169	20.024	-5.103	0.497
1035.499	602.762	80.007	19.994	103.170	20.025	-5.130	0.507
1035.999	603.002	80.007	19.994	103.170	20.027	-5.300	0.493
1036.499	603.278	80.011	19.993	103.170	20.024	-5.107	0.496
1036.999	603.519	80.004	19.996	103.174	20.025	-5.140	0.517
1037.499	603.811	80.008	19.995	103.170	20.025	-5.113	0.525
1037.999	604.036	80.002	19.993	103.166	20.023	-5.032	0.525
1038.499	604.295	80.005	19.996	103.162	20.024	-5.103	0.500
1038.999	604.530	80.008	19.996	103.158	20.027	-5.314	0.489
1039.499	604.812	80.008	19.994	103.155	20.028	-5.343	0.505
1040.000	605.054	80.004	19.995	103.159	20.026	-5.221	0.520
1040.500	605.322	80.005	19.995	103.160	20.027	-5.262	0.517
1040.999	605.569	80.003	19.995	103.157	20.031	-5.583	0.513
1041.499	605.822	80.005	19.994	103.155	20.028	-5.355	0.508
1041.999	606.063	80.005	19.995	103.151	20.027	-5.312	0.497
1042.499	606.315	80.010	19.997	103.149	20.028	-5.322	0.493
1042.999	606.586	80.009	19.994	103.149	20.027	-5.316	0.508
1043.499	606.867	80.006	19.995	103.155	20.026	-5.223	0.538
1043.999	607.111	80.006	19.995	103.162	20.030	-5.478	0.538
1044.500	607.365	80.006	19.995	103.164	20.027	-5.310	0.512
1045.000	607.586	80.004	19.996	103.165	20.031	-5.542	0.487
1045.499	607.846	80.008	19.995	103.163	20.031	-5.592	0.478
1046.000	608.117	80.005	19.995	103.157	20.027	-5.275	0.506
1046.500	608.388	80.009	19.995	103.156	20.028	-5.366	0.536
1046.999	608.635	80.005	19.995	103.156	20.027	-5.310	0.530
1047.499	608.900	80.004	19.994	103.158	20.030	-5.474	0.515
1047.999	609.154	80.008	19.995	103.163	20.029	-5.408	0.515
1048.500	609.437	80.006	19.994	103.166	20.031	-5.565	0.528
1049.000	609.671	80.006	19.994	103.167	20.030	-5.511	0.527
1049.499	609.929	80.006	19.995	103.167	20.032	-5.606	0.505
1049.999	610.209	80.005	19.994	103.165	20.030	-5.465	0.515
1050.499	610.435	79.995	19.996	103.165	20.029	-5.413	0.522
1050.999	610.702	80.015	19.993	103.166	20.030	-5.494	0.499
1051.499	610.928	80.009	19.993	103.165	20.028	-5.372	0.493
1051.999	611.225	80.007	19.994	103.166	20.032	-5.653	0.508
1052.499	611.483	80.000	19.995	103.165	20.032	-5.669	0.539
1052.999	611.730	80.007	19.994	103.161	20.028	-5.378	0.530
1053.499	612.024	80.010	19.994	103.161	20.030	-5.465	0.523
1053.999	612.266	80.006	19.994	103.159	20.031	-5.577	0.538
1054.499	612.524	80.006	19.994	103.156	20.032	-5.646	0.518
1054.999	612.776	80.008	19.994	103.153	20.031	-5.584	0.505
1055.499	613.036	80.011	19.993	103.150	20.030	-5.519	0.511
1055.999	613.296	80.007	19.994	103.148	20.031	-5.588	0.517
1056.499	613.547	80.007	19.994	103.146	20.033	-5.681	0.516
1056.999	613.806	80.008	19.994	103.150	20.031	-5.585	0.510
1057.499	614.067	80.007	19.994	103.151	20.031	-5.581	0.515
1057.999	614.341	80.007	19.994	103.151	20.033	-5.692	0.528
1058.499	614.571	80.007	19.994	103.150	20.031	-5.537	0.520
1058.999	614.855	80.009	19.993	103.150	20.032	-5.626	0.509
1059.499	615.121	80.006	19.995	103.148	20.034	-5.797	0.532
1059.999	615.350	80.007	19.994	103.150	20.030	-5.495	0.522
1060.499	615.629	80.008	19.994	103.154	20.029	-5.423	0.502
1060.999	615.868	80.008	19.994	103.155	20.031	-5.583	0.513
1061.499	616.076	80.009	19.994	103.158	20.032	-5.616	0.482
1061.999	616.379	80.007	19.994	103.161	20.031	-5.558	0.479
1062.500	616.628	80.007	19.994	103.164	20.029	-5.411	0.532
1063.000	616.886	80.007	19.995	103.165	20.029	-5.460	0.529
1063.500	617.110	80.008	19.993	103.168	20.029	-5.396	0.494
1064.000	617.403	80.008	19.994	103.163	20.029	-5.400	0.500
1064.499	617.635	80.007	19.993	103.160	20.029	-5.410	0.521
1064.999	617.932	80.008	19.995	103.155	20.029	-5.464	0.527
1065.499	618.168	80.006	19.993	103.150	20.025	-5.132	0.531
1065.999	618.409	80.008	19.997	103.151	20.026	-5.212	0.505
1066.499	618.651	80.006	20.000	103.151	20.027	-5.281	0.479
1066.999	618.939	80.005	19.994	103.152	20.031	-5.562	0.507
1067.500	619.187	80.009	19.994	103.154	20.029	-5.448	0.534
1068.000	619.457	80.009	19.994	103.160	20.028	-5.324	0.527
1068.500	619.722	80.005	19.994	103.162	20.028	-5.360	0.526
1069.000	619.962	80.012	19.995	103.167	20.027	-5.320	0.520
1069.500	620.218	80.006	19.995	103.172	20.033	-5.717	0.501
1070.000	620.484	80.005	19.994	103.175	20.031	-5.554	0.509
1070.500	620.721	80.005	19.994	103.173	20.028	-5.358	0.512
1071.000	620.956	80.007	19.993	103.171	20.033	-5.709	0.488
1071.500	621.221	80.002	19.995	103.166	20.031	-5.538	0.486
1071.999	621.487	80.006	19.994	103.161	20.030	-5.490	0.516
1072.499	621.709	80.014	19.993	103.162	20.032	-5.631	0.509
1072.999	621.962	79.999	19.995	103.165	20.034	-5.767	0.481
1073.499	622.238	80.007	19.994	103.167	20.035	-5.821	0.502
1073.999	622.467	80.006	19.995	103.172	20.033	-5.703	0.517
1074.499	622.740	80.007	19.994	103.174	20.030	-5.492	0.504
1074.999	622.937	80.007	19.996	103.175	20.032	-5.616	0.486
1075.499	623.211	80.011	19.995	103.174	20.034	-5.805	0.471
1075.999	623.481	80.012	19.995	103.172	20.033	-5.731	0.508
1076.499	623.744	80.008	19.994	103.167	20.033	-5.735	0.538
1077.000	624.004	80.000	19.994	103.167	20.033	-5.683	0.528
1077.500	624.237	80.004	19.996	103.161	20.031	-5.600	0.508
1077.999	624.488	80.012	19.994	103.158	20.032	-5.658	0.489
1078.499	624.746	80.007	19.995	103.162	20.033	-5.737	0.496
1078.999	625.027	80.007	19.995	103.163	20.035	-5.818	0.524
1079.499	625.297	80.005	19.995	103.157	20.032	-5.633	0.545
1080.000	625.542	80.006	19.993	103.160	20.031	-5.569	0.533
1080.500	625.751	80.008	19.995	103.164	20.034	-5.817	0.484
1080.999	626.035	80.008	19.995	103.162	20.031	-5.554	0.473
1081.499	626.296	80.007	19.995	103.159	20.032	-5.672	0.519
1081.999	626.526	80.008	19.995	103.162	20.030	-5.488	0.518
1082.499	626.799	80.007	19.995	103.159	20.033	-5.680	0.498
1082.999	627.049	80.010	19.994	103.152	20.032	-5.676	0.513
1083.499	627.317	80.011	19.994	103.151	20.032	-5.674	0.520
1083.999	627.591	80.010	19.994	103.157	20.030	-5.481	0.530
1084.499	627.839	80.006	19.995	103.157	20.031	-5.549	0.532
1084.999	628.089	80.006	19.995	103.157	20.029	-5.409	0.510
1085.499	628.356	80.008	19.994	103.158	20.032	-5.612	0.508
1086.000	628.617	80.011	19.994	103.155	20.032	-5.645	0.523
1086.500	628.862	80.008	19.994	103.151	20.028	-5.388	0.517
1087.000	629.141	80.007	19.994	103.149	20.030	-5.482	0.515
1087.500	629.421	80.008	19.994	103.150	20.030	-5.503	0.542
1088.000	629.655	80.014	19.993	103.146	20.033	-5.731	0.537
1088.500	629.907	80.006	19.994	103.146	20.034	-5.791	0.500
1089.000	630.182	80.005	19.993	103.144	20.033	-5.685	0.506
1089.500	630.436	80.012	19.994	103.145	20.032	-5.665	0.528
1089.999	630.697	79.998	19.995	103.147	20.032	-5.615	0.522
1090.499	630.906	80.000	19.996	103.150	20.033	-5.691	0.493
1090.999	631.189	80.006	19.995	103.150	20.032	-5.624	0.481
1091.499	631.436	80.006	19.995	103.151	20.031	-5.558	0.511
1091.999	631.723	79.997	19.996	103.157	20.033	-5.686	0.532
1092.500	631.964	80.006	19.996	103.156	20.032	-5.645	0.531
1093.000	632.233	80.010	19.995	103.158	20.033	-5.685	0.519
1093.499	632.469	80.008	19.994	103.162	20.032	-5.644	0.508
1093.999	632.703	80.006	19.995	103.165	20.034	-5.788	0.488
1094.499	633.013	80.016	19.996	103.164	20.037	-5.988	0.506
1094.999	633.266	80.003	19.995	103.165	20.037	-5.966	0.553
1095.499	633.493	79.997	19.995	103.167	20.038	-6.058	0.522
1095.999	633.776	80.008	19.993	103.167	20.036	-5.892	0.495
1096.499	634.061	80.013	19.994	103.167	20.035	-5.863	0.539
1096.999	634.304	80.007	19.995	103.166	20.036	-5.913	0.548
1097.499	634.542	80.008	19.995	103.160	20.035	-5.874	0.504
1098.000	634.809	80.006	19.995	103.153	20.035	-5.849	0.493
1098.500	635.058	80.004	19.995	103.151	20.035	-5.836	0.511
1098.999	635.350	80.005	19.994	103.145	20.036	-5.892	0.529
1099.499	635.635	80.007	19.995	103.141	20.037	-6.022	0.559
1099.999	635.886	80.015	19.995	103.140	20.036	-5.960	0.556
1100.499	636.122	80.007	19.995	103.145	20.035	-5.859	0.512
1100.999	636.392	80.005	19.996	103.147	20.036	-5.890	0.496
1101.499	636.648	80.005	19.995	103.151	20.038	-6.051	0.515
1102.000	636.912	80.009	19.996	103.158	20.037	-5.991	0.523
1102.500	637.155	80.003	19.995	103.163	20.032	-5.658	0.514
1102.999	637.440	80.007	19.995	103.162	20.033	-5.721	0.517
1103.500	637.701	80.006	19.994	103.160	20.035	-5.853	0.537
1104.000	637.918	80.013	19.995	103.156	20.037	-5.967	0.512
1104.499	638.217	80.012	19.995	103.151	20.037	-5.970	0.497
1104.999	638.471	80.010	19.996	103.148	20.035	-5.862	0.534
1105.499	638.730	80.020	19.993	103.144	20.034	-5.750	0.533
1105.999	638.961	80.004	19.995	103.149	20.036	-5.899	0.502
1106.499	639.245	80.004	19.996	103.148	20.035	-5.865	0.503
1106.999	639.523	80.006	19.996	103.145	20.037	-6.012	0.539
1107.499	639.793	80.003	19.997	103.145	20.033	-5.729	0.554
1107.999	640.028	80.001	19.996	103.145	20.035	-5.853	0.526
1108.499	640.318	80.008	19.995	103.138	20.033	-5.694	0.515
1108.999	640.561	80.001	19.996	103.140	20.036	-5.932	0.529
1109.499	640.844	80.016	19.996	103.143	20.036	-5.890	0.529
1109.999	641.096	80.002	19.995	103.144	20.039	-6.106	0.530
1110.499	641.311	80.007	19.995	103.150	20.035	-5.863	0.501
1111.000	641.616	80.010	19.994	103.152	20.036	-5.909	0.494
1111.500	641.845	80.021	19.995	103.149	20.034	-5.789	0.527
1112.000	642.115	80.012	19.994	103.147	20.033	-5.737	0.516
1112.500	642.385	80.006	19.995	103.148	20.037	-5.979	0.519
1112.999	642.630	79.997	19.996	103.147	20.037	-6.026	0.528
1113.499	642.908	80.006	19.996	103.143	20.034	-5.786	0.520
1113.999	643.172	80.004	19.995	103.142	20.040	-6.187	0.533
1114.499	643.431	80.001	19.996	103.140	20.040	-6.201	0.532
1114.999	643.647	80.007	19.994	103.135	20.036	-5.941	0.498
1115.500	643.929	80.007	19.994	103.131	20.035	-5.840	0.487
1116.000	644.173	80.003	19.995	103.137	20.038	-6.063	0.512
1116.499	644.432	80.008	19.993	103.140	20.034	-5.801	0.514
1116.999	644.688	80.007	19.994	103.143	20.035	-5.855	0.509
1117.499	644.931	80.010	19.994	103.147	20.038	-6.064	0.507
1118.000	645.180	80.017	19.993	103.149	20.038	-6.041	0.495
1118.500	645.475	80.006	19.994	103.147	20.039	-6.112	0.518
1118.999	645.723	80.003	19.995	103.146	20.036	-5.897	0.544
1119.500	646.006	80.008	19.993	103.144	20.035	-5.826	0.537
1120.000	646.211	80.008	19.993	103.143	20.035	-5.835	0.509
1120.499	646.493	80.005	19.994	103.143	20.036	-5.897	0.488
1120.999	646.745	80.005	19.994	103.141	20.037	-6.027	0.511
1121.500	646.980	80.006	19.994	103.142	20.037	-6.000	0.510
1122.000	647.226	80.008	19.994	103.143	20.038	-6.034	0.484
1122.500	647.480	80.005	19.995	103.144	20.040	-6.178	0.490
1123.000	647.759	80.006	19.995	103.145	20.038	-6.031	0.517
1123.499	648.027	80.011	19.994	103.150	20.038	-6.071	0.541
1123.999	648.271	80.005	19.994	103.154	20.040	-6.176	0.530
1124.499	648.531	80.009	19.994	103.160	20.041	-6.265	0.507
1124.999	648.788	80.007	19.994	103.166	20.039	-6.120	0.510
1125.499	648.999	80.000	19.996	103.168	20.037	-6.027	0.493
1125.999	649.276	80.002	19.995	103.160	20.042	-6.342	0.478
1126.499	649.539	80.010	19.994	103.155	20.040	-6.176	0.514
1126.999	649.775	80.004	19.994	103.152	20.038	-6.077	0.520
1127.499	650.040	80.001	19.995	103.144	20.039	-6.170	0.500
1127.999	650.310	80.015	19.993	103.139	20.040	-6.203	0.518
1128.499	650.562	80.006	19.995	103.142	20.039	-6.163	0.528
1128.999	650.835	80.009	19.994	103.141	20.043	-6.389	0.524
1129.499	651.068	80.006	19.994	103.137	20.041	-6.281	0.516
1129.999	651.325	80.011	19.994	103.139	20.039	-6.141	0.498
1130.499	651.571	80.001	19.995	103.140	20.042	-6.354	0.496
1130.999	651.823	80.005	19.995	103.138	20.042	-6.321	0.500
1131.499	652.131	80.012	19.995	103.137	20.040	-6.184	0.529
1131.999	652.344	80.006	19.994	103.136	20.040	-6.234	0.540
1132.499	652.587	80.008	19.992	103.135	20.040	-6.203	0.488
1132.999	652.843	80.005	19.995	103.135	20.035	-5.828	0.477
1133.499	653.088	80.007	19.995	103.134	20.038	-6.095	0.500
1133.999	653.353	80.003	19.995	103.137	20.039	-6.118	0.506
1134.499	653.620	80.007	19.993	103.137	20.040	-6.230	0.521
1134.999	653.855	80.010	19.993	103.137	20.040	-6.187	0.517
1135.499	654.100	80.006	19.994	103.139	20.041	-6.253	0.490
1135.999	654.379	80.007	19.994	103.141	20.038	-6.040	0.502
1136.499	654.651	80.007	19.994	103.138	20.038	-6.102	0.538
1136.999	654.910	80.009	19.993	103.141	20.038	-6.075	0.542
1137.499	655.148	80.010	19.995	103.143	20.036	-5.958	0.514
1137.999	655.425	80.010	19.994	103.141	20.036	-5.917	0.506
1138.499	655.650	80.007	19.995	103.143	20.039	-6.107	0.509
1138.999	655.913	80.007	19.993	103.145	20.038	-6.054	0.495
1139.499	656.172	80.009	19.994	103.144	20.036	-5.898	0.505
1139.999	656.403	80.004	19.995	103.143	20.039	-6.124	0.506
1140.499	656.657	80.007	19.994	103.143	20.037	-5.983	0.487
1140.999	656.933	80.009	19.995	103.142	20.039	-6.170	0.508
1141.499	657.156	80.007	19.994	103.141	20.040	-6.236	0.515
1141.999	657.414	80.009	19.994	103.143	20.038	-6.094	0.490
1142.499	657.690	80.005	19.994	103.145	20.041	-6.253	0.507
1142.999	657.964	80.011	19.993	103.147	20.039	-6.137	0.542
1143.499	658.183	80.002	19.994	103.147	20.039	-6.156	0.521
1143.999	658.416	80.003	19.995	103.146	20.039	-6.162	0.472
1144.499	658.685	80.001	19.996	103.148	20.038	-6.100	0.477
1144.999	658.899	80.007	19.993	103.145	20.037	-6.019	0.493
1145.499	659.182	80.020	19.992	103.145	20.038	-6.040	0.490
1145.999	659.433	80.013	19.994	103.155	20.040	-6.183	0.515
1146.499	659.701	80.004	19.994	103.162	20.039	-6.143	0.526
1146.999	659.932	80.006	19.994	103.162	20.039	-6.156	0.509
1147.499	660.198	80.009	19.993	103.162	20.039	-6.120	0.498
1147.999	660.391	80.016	19.993	103.161	20.040	-6.234	0.478
1148.500	660.661	80.009	19.994	103.152	20.038	-6.083	0.461
1149.000	660.907	80.005	19.994	103.146	20.043	-6.398	0.489
1149.500	661.195	80.006	19.995	103.144	20.044	-6.464	0.525
1150.000	661.395	80.008	19.994	103.147	20.042	-6.367	0.512
1150.499	661.647	80.000	19.994	103.147	20.042	-6.363	0.470
1150.999	661.918	79.990	19.995	103.148	20.041	-6.247	0.487
1151.499	662.185	80.010	19.993	103.146	20.040	-6.224	0.530
1151.999	662.417	79.994	19.995	103.146	20.046	-6.603	0.518
1152.499	662.691	80.008	19.993	103.138	20.042	-6.369	0.502
1152.999	662.944	80.003	19.995	103.135	20.042	-6.319	0.516
1153.499	663.206	80.012	19.993	103.131	20.040	-6.236	0.521
1153.999	663.456	80.013	19.993	103.134	20.040	-6.230	0.514
1154.499	663.699	80.004	19.994	103.134	20.041	-6.309	0.503
1154.999	663.941	80.010	19.994	103.137	20.044	-6.524	0.489
1155.499	664.184	80.008	19.994	103.137	20.043	-6.456	0.485
1155.999	664.428	79.998	19.996	103.138	20.044	-6.458	0.486
1156.499	664.730	80.010	19.994	103.133	20.038	-6.065	0.517
1156.999	664.955	80.022	19.993	103.133	20.041	-6.249	0.537
1157.499	665.216	80.009	19.994	103.136	20.045	-6.539	0.506
1157.999	665.465	80.012	19.993	103.138	20.043	-6.437	0.498
1158.499	665.724	80.006	19.993	103.140	20.046	-6.669	0.508
1158.999	665.970	80.008	19.993	103.143	20.047	-6.675	0.506
1159.499	666.225	80.007	19.995	103.143	20.043	-6.449	0.503
1160.000	666.475	80.004	19.993	103.141	20.043	-6.456	0.503
1160.500	666.731	80.009	19.993	103.139	20.043	-6.452	0.506
1161.000	666.975	80.012	19.995	103.135	20.043	-6.435	0.503
1161.500	667.251	80.003	19.995	103.134	20.045	-6.542	0.510
1162.000	667.516	80.006	19.995	103.133	20.047	-6.673	0.531
1162.500	667.752	79.999	19.996	103.132	20.046	-6.654	0.521
1162.999	667.978	80.008	19.994	103.134	20.046	-6.638	0.482
1163.499	668.294	80.016	19.993	103.136	20.043	-6.416	0.502
1163.999	668.536	79.999	19.995	103.138	20.047	-6.677	0.550
1164.499	668.777	80.016	19.994	103.138	20.045	-6.549	0.521
1164.999	669.003	80.016	19.993	103.139	20.047	-6.696	0.475
1165.499	669.271	80.001	19.995	103.138	20.049	-6.816	0.480
1165.999	669.532	80.007	19.994	103.136	20.046	-6.632	0.512
1166.499	669.803	80.008	19.993	103.136	20.045	-6.555	0.530
1166.999	670.075	80.015	19.994	103.137	20.047	-6.711	0.538
1167.499	670.330	80.006	19.995	103.137	20.046	-6.619	0.536
1167.999	670.558	80.005	19.995	103.136	20.047	-6.706	0.505
1168.499	670.847	80.005	19.995	103.137	20.048	-6.787	0.500
1169.000	671.111	80.008	19.995	103.135	20.045	-6.545	0.535
1169.500	671.387	80.001	19.994	103.136	20.047	-6.708	0.546
1169.999	671.607	80.000	19.994	103.137	20.044	-6.518	0.518
1170.499	671.806	80.000	19.996	103.136	20.044	-6.504	0.458
1170.999	672.133	80.003	19.994	103.135	20.043	-6.386	0.472
1171.499	672.347	80.016	19.994	103.136	20.042	-6.346	0.533
1171.999	672.625	80.014	19.992	103.136	20.044	-6.508	0.517
1172.499	672.859	80.015	19.994	103.139	20.047	-6.708	0.502
1172.999	673.136	80.002	19.996	103.140	20.046	-6.640	0.511
1173.499	673.424	80.001	19.994	103.141	20.046	-6.615	0.538
1174.000	673.642	80.002	19.995	103.140	20.045	-6.572	0.536
1174.500	673.906	79.995	19.995	103.138	20.048	-6.791	0.494
1174.999	674.177	80.007	19.994	103.133	20.044	-6.514	0.508
1175.499	674.418	80.001	19.995	103.133	20.044	-6.522	0.524
1175.999	674.704	79.999	19.994	103.134	20.046	-6.619	0.520
1176.499	674.973	80.007	19.994	103.133	20.045	-6.592	0.541
1176.999	675.191	80.007	19.994	103.133	20.047	-6.718	0.520
1177.499	675.479	80.004	19.994	103.134	20.048	-6.743	0.496
1177.999	675.762	80.009	19.994	103.134	20.047	-6.673	0.539
1178.499	675.983	80.006	19.994	103.134	20.047	-6.671	0.538
1178.999	676.225	80.006	19.994	103.136	20.044	-6.495	0.484
1179.499	676.473	80.007	19.993	103.135	20.053	-7.145	0.476
1179.999	676.768	80.007	19.994	103.136	20.049	-6.852	0.517
1180.499	676.992	80.003	19.995	103.136	20.050	-6.920	0.531
1181.000	677.256	80.004	19.995	103.134	20.051	-7.011	0.503
1181.500	677.485	80.004	19.994	103.134	20.049	-6.870	0.490
1181.999	677.749	80.006	19.994	103.134	20.048	-6.800	0.493
1182.499	678.003	80.007	19.994	103.134	20.051	-6.984	0.505
1182.999	678.261	80.012	19.994	103.135	20.052	-7.044	0.515
1183.499	678.513	80.006	19.994	103.138	20.051	-6.957	0.511
1183.999	678.753	80.003	19.996	103.138	20.050	-6.917	0.501
1184.499	678.999	80.007	19.993	103.137	20.049	-6.880	0.489
1185.000	679.208	80.003	19.994	103.137	20.052	-7.048	0.471
1185.500	679.462	80.007	19.995	103.136	20.050	-6.936	0.459
1185.999	679.721	79.996	19.995	103.134	20.050	-6.906	0.488
1186.499	680.004	80.018	19.993	103.135	20.051	-6.973	0.527
1186.999	680.235	80.005	19.994	103.138	20.050	-6.906	0.528
1187.499	680.471	80.011	19.995	103.140	20.051	-7.007	0.491
1188.000	680.776	80.005	19.994	103.141	20.050	-6.921	0.504
1188.500	680.978	79.998	19.995	103.141	20.052	-7.031	0.524
1188.999	681.276	80.005	19.993	103.139	20.052	-7.079	0.504
1189.499	681.503	80.001	19.995	103.137	20.051	-7.002	0.512
1189.999	681.751	80.002	19.994	103.134	20.052	-7.073	0.500
1190.499	682.052	79.998	19.995	103.133	20.052	-7.050	0.512
1190.999	682.307	80.006	19.994	103.129	20.051	-6.965	0.553
1191.499	682.529	80.010	19.995	103.129	20.053	-7.102	0.517
1191.999	682.789	80.003	19.994	103.128	20.055	-7.251	0.480
1192.499	683.024	80.006	19.994	103.126	20.052	-7.083	0.489
1192.999	683.306	80.009	19.994	103.128	20.051	-7.021	0.506
1193.499	683.533	80.005	19.994	103.133	20.054	-7.199	0.513
1193.999	683.773	80.010	19.994	103.136	20.053	-7.122	0.488
1194.499	684.049	80.005	19.995	103.138	20.053	-7.139	0.492
1194.999	684.318	79.996	19.997	103.140	20.054	-7.209	0.531
1195.499	684.577	80.007	19.994	103.137	20.054	-7.176	0.536
1195.999	684.821	80.011	19.994	103.137	20.053	-7.164	0.515
1196.499	685.074	80.010	19.994	103.142	20.050	-6.909	0.500
1196.999	685.293	80.012	19.993	103.144	20.052	-7.075	0.484
1197.500	685.574	80.005	19.996	103.145	20.055	-7.238	0.486
1198.000	685.843	80.009	19.996	103.148	20.054	-7.229	0.525
1198.499	686.032	79.995	19.996	103.149	20.055	-7.252	0.504
1198.999	686.328	80.005	19.996	103.143	20.057	-7.428	0.472
1199.499	686.560	80.007	19.995	103.139	20.056	-7.374	0.507
1199.999	686.746	80.003	19.995	103.140	20.055	-7.273	0.473
1200.499	687.047	79.998	19.996	103.140	20.058	-7.513	0.452
1200.999	687.305	80.003	19.995	103.137	20.059	-7.527	0.523
1201.499	687.529	80.006	19.995	103.138	20.058	-7.509	0.521
1202.000	687.808	80.005	19.996	103.138	20.059	-7.587	0.493
1202.500	688.061	79.996	19.995	103.137	20.057	-7.426	0.517
1202.999	688.322	80.002	19.995	103.135	20.056	-7.333	0.523
1203.500	688.565	80.002	19.995	103.136	20.058	-7.495	0.509
1204.000	688.845	80.009	19.993	103.136	20.054	-7.213	0.513
1204.499	689.078	80.001	19.996	103.136	20.058	-7.482	0.518
1205.000	689.315	80.001	19.995	103.135	20.060	-7.607	0.492
1205.500	689.602	79.998	19.995	103.136	20.057	-7.417	0.497
1206.000	689.851	80.001	19.997	103.136	20.059	-7.526	0.530
1206.499	690.116	80.009	19.994	103.133	20.057	-7.400	0.525
1206.999	690.373	80.002	19.995	103.133	20.059	-7.576	0.518
1207.500	690.638	80.008	19.994	103.133	20.059	-7.567	0.522
1208.000	690.862	80.003	19.994	103.135	20.056	-7.341	0.506
1208.499	691.101	80.006	19.994	103.136	20.056	-7.321	0.476
1208.999	691.375	80.011	19.993	103.141	20.058	-7.490	0.487
1209.499	691.591	80.010	19.993	103.142	20.058	-7.498	0.501
1209.999	691.873	80.003	19.994	103.143	20.058	-7.472	0.494
1210.499	692.115	79.997	19.996	103.143	20.060	-7.602	0.511
1210.999	692.393	80.006	19.994	103.142	20.060	-7.604	0.522
1211.499	692.635	80.021	19.992	103.142	20.061	-7.694	0.520
1211.999	692.883	80.005	19.995	103.144	20.059	-7.582	0.505
1212.499	693.147	80.009	19.995	103.141	20.059	-7.534	0.501
1212.999	693.406	80.010	19.993	103.141	20.058	-7.456	0.517
1213.499	693.677	80.007	19.995	103.142	20.060	-7.627	0.526
1213.999	693.938	80.011	19.994	103.143	20.060	-7.662	0.531
1214.499	694.186	80.007	19.994	103.139	20.061	-7.702	0.521
1214.999	694.442	80.001	19.995	103.139	20.059	-7.586	0.507
1215.500	694.715	80.008	19.994	103.135	20.057	-7.429	0.516
1216.000	694.977	80.009	19.995	103.134	20.060	-7.621	0.532
1216.500	695.243	80.009	19.995	103.131	20.060	-7.663	0.532
1216.999	695.489	80.004	19.994	103.132	20.059	-7.578	0.520
1217.499	695.734	79.999	19.996	103.133	20.062	-7.751	0.502
1217.999	695.991	80.012	19.992	103.133	20.062	-7.778	0.497
1218.499	696.259	80.009	19.993	103.135	20.060	-7.648	0.513
1218.999	696.520	80.022	19.992	103.138	20.060	-7.657	0.527
1219.499	696.803	80.006	19.993	103.139	20.063	-7.823	0.536
1220.000	697.025	80.005	19.994	103.139	20.061	-7.715	0.525
1220.500	697.299	80.012	19.993	103.142	20.058	-7.491	0.501
1221.000	697.544	80.008	19.994	103.142	20.057	-7.433	0.507
1221.499	697.786	80.011	19.995	103.141	20.059	-7.551	0.502
1221.999	698.036	80.003	19.994	103.137	20.062	-7.764	0.489
1222.500	698.304	80.003	19.994	103.135	20.057	-7.427	0.506
1223.000	698.553	80.009	19.993	103.136	20.063	-7.816	0.518
1223.500	698.829	80.006	19.995	103.134	20.063	-7.812	0.521
1223.999	699.051	80.003	19.995	103.134	20.061	-7.690	0.511
1224.499	699.328	80.014	19.994	103.133	20.061	-7.708	0.498
1224.999	699.601	80.004	19.995	103.137	20.056	-7.375	0.525
1225.500	699.856	80.008	19.994	103.135	20.060	-7.630	0.539
1226.000	700.138	80.005	19.993	103.134	20.058	-7.489	0.532
1226.500	700.349	80.004	19.996	103.134	20.060	-7.634	0.515
1226.999	700.643	80.002	19.994	103.134	20.061	-7.686	0.499
1227.499	700.870	80.013	19.994	103.132	20.062	-7.790	0.513
1227.999	701.151	80.015	19.993	103.133	20.059	-7.564	0.514
1228.499	701.440	80.009	19.995	103.135	20.065	-7.985	0.539
1228.999	701.644	80.007	19.995	103.134	20.058	-7.494	0.531
1229.499	701.870	80.005	19.995	103.132	20.065	-7.995	0.461
1230.000	702.163	80.005	19.995	103.130	20.062	-7.734	0.474
1230.500	702.421	80.007	19.995	103.127	20.064	-7.889	0.535
1230.999	702.673	80.006	19.994	103.126	20.061	-7.712	0.531
1231.499	702.963	80.008	19.995	103.126	20.062	-7.791	0.526
1231.999	703.206	80.009	19.994	103.129	20.063	-7.859	0.538
1232.499	703.440	80.005	19.995	103.131	20.063	-7.847	0.505
1232.999	703.715	80.007	19.994	103.133	20.063	-7.876	0.493
1233.499	703.996	80.010	19.994	103.131	20.065	-7.980	0.533
1233.999	704.218	80.005	19.995	103.130	20.063	-7.851	0.530
1234.500	704.437	80.009	19.994	103.129	20.062	-7.789	0.472
1235.000	704.678	80.009	19.993	103.129	20.064	-7.940	0.450
1235.499	705.010	80.002	19.994	103.131	20.063	-7.851	0.516
1235.999	705.244	80.002	19.994	103.132	20.065	-7.998	0.569
1236.499	705.483	79.993	19.996	103.132	20.063	-7.851	0.520
1236.999	705.745	80.005	19.995	103.129	20.064	-7.934	0.487
1237.499	706.032	80.002	19.994	103.127	20.062	-7.764	0.525
1237.999	706.248	79.993	19.996	103.123	20.062	-7.758	0.526
1238.499	706.489	80.007	19.994	103.121	20.062	-7.743	0.480
1239.000	706.716	79.997	19.995	103.121	20.064	-7.880	0.462
1239.500	706.997	80.000	19.995	103.120	20.059	-7.586	0.488
1240.000	707.236	80.008	19.993	103.119	20.061	-7.681	0.514
1240.500	707.499	80.010	19.993	103.123	20.062	-7.766	0.511
1241.000	707.753	80.014	19.994	103.127	20.062	-7.797	0.510
1241.500	708.006	80.015	19.993	103.127	20.061	-7.718	0.512
1241.999	708.249	79.996	19.994	103.133	20.060	-7.664	0.502
1242.499	708.503	79.995	19.996	103.135	20.063	-7.859	0.496
1242.999	708.762	79.998	19.995	103.131	20.064	-7.890	0.505
1243.499	709.033	80.019	19.993	103.127	20.062	-7.772	0.522
1243.999	709.301	80.018	19.992	103.129	20.064	-7.915	0.535
1244.499	709.524	80.006	19.994	103.130	20.063	-7.861	0.515
1244.999	709.824	80.012	19.993	103.131	20.062	-7.782	0.507
1245.500	709.998	80.006	19.994	103.137	20.061	-7.708	0.498
1246.000	710.306	80.008	19.993	103.139	20.060	-7.627	0.478
1246.499	710.578	80.011	19.993	103.138	20.060	-7.613	0.531
1246.999	710.779	80.009	19.994	103.137	20.059	-7.579	0.527
1247.499	711.060	80.008	19.994	103.138	20.059	-7.534	0.477
1247.999	711.285	80.008	19.993	103.136	20.061	-7.689	0.494
1248.499	711.534	80.006	19.994	103.136	20.060	-7.627	0.490
1248.999	711.817	80.007	19.994	103.136	20.060	-7.650	0.503
1249.499	712.079	80.001	19.994	103.136	20.063	-7.851	0.538
1249.999	712.285	80.006	19.994	103.135	20.060	-7.619	0.507
1250.499	712.576	80.022	19.991	103.136	20.063	-7.838	0.483
1250.999	712.788	80.000	19.995	103.141	20.060	-7.658	0.500
1251.499	713.050	80.007	19.994	103.141	20.061	-7.710	0.488
1251.999	713.322	79.999	19.995	103.140	20.060	-7.611	0.504
1252.499	713.530	80.016	19.994	103.140	20.059	-7.590	0.507
1252.999	713.795	80.013	19.994	103.142	20.062	-7.783	0.477
1253.499	714.044	80.011	19.993	103.138	20.058	-7.516	0.493
1253.999	714.301	80.012	19.994	103.139	20.057	-7.435	0.510
1254.499	714.559	80.006	19.994	103.140	20.060	-7.655	0.511
1254.999	714.813	80.011	19.993	103.140	20.059	-7.571	0.514
1255.499	715.035	80.010	19.994	103.140	20.059	-7.528	0.494
1256.000	715.330	80.009	19.994	103.139	20.057	-7.406	0.496
1256.500	715.582	80.009	19.993	103.138	20.061	-7.677	0.532
1257.000	715.880	80.004	19.993	103.139	20.060	-7.632	0.548
1257.500	716.069	80.012	19.995	103.139	20.059	-7.526	0.518
1257.999	716.352	80.016	19.995	103.139	20.059	-7.532	0.480
1258.499	716.589	80.008	19.995	103.140	20.061	-7.710	0.497
1258.999	716.827	80.003	19.996	103.141	20.062	-7.735	0.497
1259.499	717.076	79.997	19.996	103.139	20.061	-7.727	0.481
1259.999	717.313	80.007	19.995	103.137	20.065	-7.973	0.487
1260.499	717.576	80.008	19.994	103.135	20.062	-7.769	0.493
1260.999	717.831	80.005	19.995	103.135	20.062	-7.735	0.509
1261.500	718.078	80.003	19.994	103.135	20.056	-7.359	0.510
1262.000	718.306	80.005	19.995	103.135	20.057	-7.389	0.488
1262.499	718.620	80.008	19.995	103.136	20.060	-7.605	0.508
1263.000	718.871	79.990	19.996	103.134	20.057	-7.414	0.554
1263.500	719.114	80.003	19.995	103.130	20.059	-7.522	0.530
1263.999	719.408	80.007	19.996	103.126	20.064	-7.923	0.515
1264.499	719.624	80.003	19.996	103.127	20.060	-7.627	0.523
1264.999	719.847	80.010	19.994	103.127	20.063	-7.843	0.474
1265.499	720.112	80.008	19.994	103.130	20.058	-7.518	0.464
1265.999	720.385	80.005	19.995	103.135	20.060	-7.613	0.513
1266.499	720.598	80.003	19.996	103.137	20.063	-7.839	0.512
1267.000	720.870	80.009	19.993	103.134	20.062	-7.756	0.485
1267.500	721.089	80.003	19.995	103.135	20.063	-7.814	0.488
1267.999	721.340	80.001	19.996	103.135	20.058	-7.470	0.481
1268.499	721.604	80.011	19.994	103.133	20.062	-7.783	0.493
1268.999	721.875	80.009	19.994	103.133	20.061	-7.708	0.525
1269.499	722.116	79.996	19.996	103.138	20.061	-7.717	0.523
1269.999	722.380	79.999	19.995	103.135	20.062	-7.785	0.508
1270.499	722.609	80.003	19.995	103.133	20.057	-7.410	0.499
1270.999	722.893	80.004	19.995	103.130	20.063	-7.853	0.503
1271.499	723.132	80.006	19.994	103.129	20.062	-7.760	0.518
1271.999	723.380	80.005	19.995	103.128	20.060	-7.615	0.505
1272.499	723.628	80.010	19.994	103.131	20.058	-7.495	0.491
1272.999	723.924	80.002	19.995	103.133	20.058	-7.477	0.520
1273.500	724.156	80.004	19.995	103.135	20.060	-7.638	0.536
1274.000	724.401	80.014	19.994	103.136	20.059	-7.527	0.503
1274.499	724.652	80.013	19.994	103.136	20.059	-7.584	0.487
1274.999	724.909	80.008	19.994	103.135	20.059	-7.549	0.502
1275.499	725.130	80.004	19.995	103.133	20.062	-7.738	0.492
1275.999	725.411	79.992	19.995	103.133	20.060	-7.593	0.490
1276.499	725.683	79.999	19.996	103.131	20.058	-7.481	0.528
1276.999	725.927	80.004	19.995	103.127	20.057	-7.410	0.534
1277.499	726.185	80.004	19.994	103.126	20.059	-7.530	0.509
1278.000	726.451	80.018	19.994	103.126	20.057	-7.445	0.513
1278.500	726.719	80.005	19.993	103.129	20.056	-7.328	0.529
1278.999	726.944	79.999	19.996	103.131	20.057	-7.446	0.514
1279.499	727.186	79.992	19.996	103.131	20.058	-7.458	0.480
1279.999	727.454	80.007	19.994	103.129	20.059	-7.592	0.489
1280.499	727.736	80.025	19.993	103.130	20.059	-7.527	0.531
1280.999	727.969	80.013	19.994	103.132	20.058	-7.505	0.532
1281.499	728.233	80.005	19.996	103.132	20.061	-7.669	0.506
1281.999	728.498	80.005	19.995	103.135	20.061	-7.676	0.513
1282.499	728.717	80.000	19.997	103.138	20.058	-7.502	0.507
1282.999	729.008	80.009	19.994	103.134	20.060	-7.596	0.497
1283.499	729.268	80.010	19.996	103.132	20.059	-7.540	0.530
1283.999	729.489	80.003	19.995	103.130	20.058	-7.466	0.516
1284.499	729.756	79.993	19.996	103.129	20.058	-7.513	0.485
1284.999	730.016	80.007	19.995	103.127	20.058	-7.460	0.508
1285.499	730.274	80.001	19.996	103.131	20.057	-7.412	0.522
1285.999	730.483	79.996	19.996	103.127	20.059	-7.549	0.492
1286.499	730.768	80.016	19.993	103.128	20.057	-7.389	0.480
1287.000	731.019	79.999	19.995	103.131	20.059	-7.540	0.515
1287.500	731.266	80.019	19.995	103.129	20.058	-7.470	0.517
1287.999	731.508	80.013	19.995	103.130	20.061	-7.723	0.493
1288.499	731.762	80.013	19.994	103.131	20.062	-7.753	0.492
1288.999	732.037	79.999	19.998	103.131	20.059	-7.549	0.513
1289.499	732.308	80.015	19.994	103.124	20.061	-7.687	0.538
1290.000	732.561	80.007	19.995	103.128	20.060	-7.642	0.535
1290.500	732.807	80.012	19.997	103.129	20.062	-7.756	0.511
1291.000	733.006	79.995	19.998	103.131	20.061	-7.729	0.472
1291.500	733.253	80.017	19.995	103.127	20.059	-7.584	0.446
1291.999	733.520	80.009	19.995	103.131	20.059	-7.549	0.480
1292.499	733.796	80.008	19.996	103.131	20.061	-7.680	0.529
1292.999	734.049	80.007	19.995	103.128	20.064	-7.931	0.536
1293.499	734.341	80.016	19.994	103.130	20.062	-7.738	0.537
1293.999	734.542	80.006	19.996	103.136	20.060	-7.651	0.519
1294.499	734.847	80.010	19.995	103.135	20.062	-7.763	0.500
1294.999	735.066	80.006	19.996	103.136	20.062	-7.792	0.515
1295.499	735.305	80.008	19.995	103.138	20.064	-7.907	0.491
1295.999	735.561	80.011	19.995	103.136	20.062	-7.760	0.476
1296.499	735.841	80.004	19.996	103.135	20.064	-7.890	0.515
1297.000	736.098	80.012	19.994	103.135	20.065	-7.971	0.537
1297.500	736.339	80.010	19.994	103.134	20.061	-7.718	0.518
1298.000	736.582	80.016	19.994	103.136	20.066	-8.019	0.491
1298.499	736.831	80.010	19.997	103.136	20.065	-7.961	0.487
1298.999	737.081	80.013	19.994	103.134	20.066	-8.077	0.496
1299.499	737.335	80.010	19.996	103.137	20.063	-7.872	0.502
1299.999	737.593	80.008	19.994	103.134	20.064	-7.915	0.508
1300.499	737.864	80.006	19.994	103.133	20.066	-8.038	0.521
1300.999	738.125	80.009	19.994	103.131	20.061	-7.673	0.531
1301.499	738.356	79.999	19.995	103.133	20.062	-7.769	0.512
1301.999	738.606	80.003	19.994	103.129	20.063	-7.812	0.486
1302.499	738.883	80.006	19.995	103.129	20.064	-7.910	0.504
1302.999	739.107	79.998	19.995	103.126	20.061	-7.730	0.514
1303.499	739.383	79.998	19.995	103.124	20.065	-7.970	0.501
1303.999	739.650	80.011	19.994	103.121	20.062	-7.779	0.522
1304.499	739.895	80.007	19.995	103.125	20.064	-7.887	0.527
1304.999	740.179	80.008	19.994	103.123	20.063	-7.833	0.520
1305.499	740.388	80.008	19.994	103.126	20.063	-7.851	0.511
1305.999	740.637	80.014	19.993	103.127	20.064	-7.885	0.475
1306.499	740.916	80.009	19.995	103.129	20.058	-7.489	0.493
1306.999	741.207	80.017	19.993	103.129	20.061	-7.667	0.549
1307.499	741.453	80.008	19.994	103.132	20.065	-7.976	0.553
1307.999	741.705	80.013	19.993	103.131	20.065	-7.978	0.518
1308.499	741.929	80.018	19.993	103.135	20.064	-7.926	0.488
1308.999	742.215	80.013	19.995	103.135	20.063	-7.847	0.493
1309.499	742.457	80.004	19.994	103.136	20.064	-7.943	0.519
1309.999	742.729	80.006	19.994	103.135	20.066	-8.071	0.521
1310.499	742.961	80.005	19.995	103.135	20.063	-7.876	0.509
1310.999	743.260	80.003	19.995	103.132	20.061	-7.710	0.518
1311.499	743.479	80.010	19.994	103.129	20.066	-8.041	0.525
