Sample ID:	C:\MCC\MCC Cal\Test\Fiberglas_Inaulation1_MCC_30K_min_220125_R3.txt
Sample Weight (mg):	4.84
Heating Rate (C/s):	0.5
Combustor Temp (C):	900
N2 Flow Rate (cc/min):	80
O2 Flow Rate (cc/min):	20
Calibration File:	C:\MCC\MCC Cal\Coeff1 JN10440_30_210304.txt.txt
T Correction Coefficients:	0	1.024463	0
Time Shift (s):	14
*
Time (s)	Temperature (C)	N2 flow rate (cc/min)	O2 flow rate (cc/min)	Flow Rate (cc/min)	Oxygen (%)	HRR (W/g)	Heating rate (C/s)
0.000	113.114	80.007	19.993	103.766	20.014	-0.134	0.000
0.499	113.113	80.007	19.993	103.768	20.012	-0.002	-0.013
1.000	113.118	80.007	19.992	103.770	20.011	0.024	-0.009
1.500	113.144	80.006	19.994	103.774	20.011	0.033	0.017
2.000	113.147	80.007	19.994	103.775	20.013	-0.068	0.030
2.500	113.166	80.006	19.994	103.781	20.014	-0.145	0.026
3.000	113.153	80.007	19.994	103.785	20.014	-0.140	0.014
3.500	113.141	80.007	19.993	103.795	20.012	-0.018	-0.010
4.000	113.174	80.006	19.993	103.801	20.012	-0.039	-0.002
4.500	113.148	80.006	19.994	103.803	20.014	-0.171	0.014
5.000	113.148	80.006	19.993	103.802	20.015	-0.244	-0.009
5.500	113.148	80.008	19.993	103.800	20.016	-0.285	-0.013
6.000	113.159	80.006	19.994	103.797	20.017	-0.342	0.006
6.500	113.139	80.005	19.993	103.794	20.017	-0.345	0.001
7.000	113.165	80.006	19.994	103.793	20.015	-0.208	-0.001
7.500	113.138	80.006	19.993	103.790	20.014	-0.165	0.002
8.000	113.137	80.008	19.993	103.786	20.018	-0.423	-0.014
8.499	113.175	80.006	19.994	103.783	20.019	-0.480	0.005
8.999	113.156	80.007	19.993	103.780	20.016	-0.325	0.028
9.499	113.171	80.007	19.994	103.774	20.013	-0.081	0.007
9.999	113.166	80.006	19.993	103.771	20.015	-0.202	0.003
10.499	113.154	80.006	19.994	103.773	20.018	-0.432	-0.004
10.999	113.176	80.007	19.993	103.778	20.017	-0.393	-0.004
11.499	113.163	80.007	19.995	103.786	20.017	-0.360	0.010
11.999	113.147	80.007	19.994	103.798	20.019	-0.469	-0.010
12.499	113.159	80.007	19.993	103.809	20.020	-0.579	-0.016
13.000	113.170	80.007	19.993	103.815	20.016	-0.324	0.009
13.500	113.177	80.006	19.994	103.823	20.017	-0.349	0.020
13.999	113.164	80.008	19.994	103.829	20.018	-0.412	0.006
14.500	113.186	80.008	19.993	103.838	20.017	-0.399	0.001
15.000	113.140	80.009	19.993	103.838	20.018	-0.408	-0.008
15.499	113.134	80.007	19.994	103.832	20.015	-0.263	-0.038
15.999	113.156	80.006	19.993	103.821	20.016	-0.285	-0.018
16.499	113.157	80.008	19.992	103.810	20.014	-0.132	0.019
17.000	113.172	80.007	19.994	103.802	20.015	-0.212	0.020
17.500	113.161	80.008	19.993	103.806	20.013	-0.101	0.010
17.999	113.176	80.008	19.993	103.819	20.012	-0.009	0.004
18.499	113.186	80.008	19.993	103.831	20.011	0.063	0.014
18.999	113.190	80.009	19.993	103.845	20.011	0.050	0.020
19.499	113.204	80.008	19.993	103.853	20.009	0.182	0.016
20.000	113.253	80.008	19.993	103.855	20.006	0.384	0.041
20.500	113.230	80.009	19.993	103.851	20.008	0.221	0.044
20.999	113.220	80.009	19.991	103.852	20.006	0.386	-0.004
21.499	113.253	80.010	19.993	103.853	20.003	0.550	-0.005
21.999	113.268	80.009	19.992	103.863	20.001	0.728	0.036
22.499	113.280	80.008	19.993	103.877	19.999	0.808	0.037
22.999	113.330	80.009	19.993	103.893	19.999	0.824	0.044
23.499	113.335	80.009	19.992	103.907	19.998	0.890	0.058
23.999	113.360	80.009	19.993	103.908	19.997	0.960	0.043
24.499	113.348	80.009	19.993	103.893	19.997	1.004	0.022
24.999	113.391	80.010	19.993	103.881	19.996	1.048	0.022
25.499	113.420	80.008	19.993	103.877	19.994	1.155	0.051
25.999	113.437	80.008	19.993	103.875	19.995	1.118	0.059
26.499	113.473	80.009	19.993	103.890	19.994	1.181	0.049
26.999	113.529	80.009	19.993	103.932	19.991	1.365	0.072
27.499	113.554	80.009	19.993	103.974	19.990	1.448	0.087
27.999	113.635	80.007	19.992	103.995	19.987	1.634	0.094
28.499	113.618	80.010	19.994	104.008	19.992	1.341	0.085
28.999	113.692	80.008	19.994	104.016	19.988	1.549	0.060
29.499	113.751	80.007	19.993	104.004	19.988	1.560	0.095
29.999	113.797	80.009	19.993	103.986	19.985	1.761	0.119
30.499	113.830	80.008	19.994	103.976	19.986	1.702	0.092
31.000	113.893	80.008	19.994	103.971	19.986	1.742	0.088
31.500	113.942	80.009	19.993	103.967	19.987	1.674	0.104
31.999	114.000	80.007	19.993	103.967	19.986	1.715	0.110
32.499	114.069	80.008	19.993	103.969	19.984	1.829	0.117
32.999	114.123	80.007	19.993	103.972	19.987	1.615	0.125
33.499	114.203	80.008	19.994	103.976	19.983	1.897	0.128
33.999	114.256	80.008	19.993	103.972	19.984	1.818	0.134
34.499	114.289	80.008	19.994	103.966	19.983	1.923	0.110
34.999	114.381	80.009	19.993	103.960	19.983	1.924	0.105
35.499	114.459	80.008	19.994	103.959	19.983	1.924	0.148
35.999	114.509	80.007	19.994	103.959	19.984	1.827	0.149
36.499	114.607	80.007	19.993	103.968	19.986	1.729	0.138
36.999	114.697	80.007	19.994	103.974	19.986	1.693	0.168
37.499	114.741	80.008	19.994	103.981	19.983	1.910	0.161
37.999	114.822	80.007	19.993	103.988	19.986	1.740	0.130
38.499	114.878	80.008	19.994	103.990	19.982	2.003	0.131
38.999	114.994	80.008	19.994	103.994	19.983	1.886	0.154
39.499	115.065	80.007	19.994	103.994	19.985	1.796	0.179
39.999	115.169	80.008	19.993	103.993	19.987	1.626	0.181
40.499	115.220	80.008	19.994	103.990	19.983	1.928	0.165
40.999	115.333	80.008	19.993	103.989	19.984	1.869	0.160
41.499	115.425	80.008	19.994	103.984	19.987	1.667	0.184
41.999	115.486	80.008	19.994	103.984	19.982	1.972	0.179
42.499	115.604	80.008	19.994	103.984	19.983	1.904	0.166
42.999	115.697	80.008	19.993	103.984	19.987	1.648	0.196
43.499	115.769	80.007	19.993	103.985	19.988	1.608	0.188
43.999	115.842	80.009	19.994	103.985	19.984	1.873	0.155
44.499	115.980	80.009	19.993	103.986	19.984	1.860	0.178
44.999	116.047	80.007	19.994	103.989	19.984	1.833	0.208
45.499	116.159	80.009	19.994	103.989	19.985	1.774	0.192
45.999	116.257	80.009	19.994	103.990	19.985	1.768	0.195
46.499	116.354	80.009	19.994	103.991	19.983	1.893	0.203
46.999	116.449	80.010	19.993	103.990	19.984	1.855	0.194
47.499	116.584	80.008	19.992	103.987	19.984	1.847	0.211
47.999	116.693	80.008	19.993	103.988	19.983	1.919	0.237
48.499	116.789	80.009	19.996	103.987	19.982	1.976	0.224
48.999	116.914	80.010	19.995	103.986	19.983	1.926	0.213
49.499	116.994	80.010	19.992	103.988	19.981	2.070	0.213
49.999	117.141	80.010	19.995	103.988	19.981	2.022	0.217
50.499	117.201	80.009	19.993	103.988	19.980	2.097	0.217
50.999	117.334	80.009	19.993	103.989	19.982	1.970	0.200
51.499	117.503	80.009	19.995	103.990	19.982	1.994	0.247
51.999	117.584	80.009	19.993	103.989	19.981	2.059	0.276
52.499	117.703	80.010	19.994	103.991	19.983	1.908	0.225
52.999	117.853	80.009	19.994	103.991	19.981	2.070	0.234
53.499	117.984	80.009	19.993	103.990	19.980	2.134	0.275
53.999	118.087	80.007	19.993	103.990	19.982	2.002	0.258
54.499	118.227	80.008	19.994	103.992	19.979	2.210	0.239
54.999	118.380	80.008	19.994	103.994	19.979	2.192	0.268
55.500	118.461	80.010	19.993	103.995	19.978	2.219	0.263
56.000	118.603	80.007	19.993	103.997	19.978	2.216	0.229
56.499	118.785	80.007	19.994	104.004	19.977	2.326	0.273
56.999	118.899	80.007	19.993	104.002	19.976	2.369	0.310
57.499	119.027	80.007	19.993	103.998	19.977	2.308	0.269
58.000	119.183	80.006	19.994	103.997	19.974	2.511	0.263
58.500	119.296	80.006	19.994	104.000	19.977	2.301	0.276
58.999	119.433	80.006	19.994	103.994	19.977	2.325	0.260
59.499	119.589	80.006	19.994	103.994	19.979	2.215	0.272
59.999	119.685	80.007	19.994	103.994	19.976	2.401	0.272
60.499	119.888	80.007	19.995	103.994	19.975	2.471	0.275
60.999	119.991	80.006	19.993	103.992	19.978	2.220	0.303
61.499	120.122	80.006	19.993	103.991	19.979	2.205	0.270
61.999	120.286	80.005	19.993	103.990	19.980	2.100	0.264
62.499	120.437	80.006	19.994	103.990	19.980	2.087	0.305
62.999	120.592	80.006	19.995	103.991	19.979	2.188	0.311
63.500	120.697	80.004	19.995	103.993	19.979	2.153	0.283
64.000	120.870	80.006	19.995	104.000	19.978	2.215	0.269
64.499	121.034	80.006	19.994	104.006	19.982	1.948	0.308
64.999	121.209	80.005	19.994	104.013	19.980	2.116	0.338
65.499	121.342	80.007	19.995	104.018	19.983	1.919	0.323
66.000	121.516	80.006	19.994	104.022	19.984	1.843	0.307
66.500	121.672	80.007	19.994	104.023	19.979	2.156	0.318
66.999	121.793	80.007	19.994	104.026	19.984	1.816	0.304
67.499	121.972	80.006	19.995	104.028	19.982	1.949	0.289
67.999	122.145	80.006	19.995	104.029	19.985	1.765	0.326
68.499	122.309	80.006	19.994	104.036	19.982	1.953	0.344
68.999	122.493	80.007	19.994	104.046	19.983	1.921	0.342
69.499	122.625	80.007	19.994	104.054	19.985	1.794	0.332
69.999	122.794	80.007	19.995	104.060	19.984	1.857	0.309
70.499	122.960	80.007	19.994	104.067	19.985	1.783	0.319
70.999	123.109	80.006	19.994	104.068	19.986	1.724	0.325
71.499	123.288	80.007	19.994	104.062	19.984	1.842	0.321
71.999	123.424	80.005	19.995	104.055	19.985	1.798	0.321
72.499	123.620	80.007	19.993	104.046	19.982	1.980	0.323
73.000	123.756	80.006	19.994	104.034	19.985	1.802	0.332
73.500	123.948	80.008	19.995	104.020	19.982	1.953	0.330
73.999	124.132	80.008	19.993	104.008	19.984	1.853	0.352
74.499	124.271	80.007	19.994	104.005	19.981	2.054	0.349
74.999	124.455	80.007	19.994	104.000	19.983	1.914	0.323
75.499	124.650	80.006	19.993	103.997	19.981	2.054	0.351
75.999	124.822	80.008	19.993	103.996	19.978	2.251	0.373
76.499	124.984	80.008	19.993	103.997	19.979	2.155	0.351
76.999	125.140	80.006	19.993	103.993	19.981	2.069	0.326
77.499	125.349	80.007	19.993	103.996	19.983	1.883	0.342
77.999	125.536	80.007	19.994	104.001	19.979	2.212	0.381
78.499	125.705	80.007	19.994	104.008	19.976	2.395	0.376
78.999	125.882	80.008	19.993	104.017	19.978	2.238	0.351
79.500	126.057	80.008	19.993	104.025	19.980	2.091	0.349
80.000	126.279	80.008	19.994	104.027	19.980	2.124	0.375
80.500	126.435	80.008	19.994	104.029	19.976	2.379	0.387
81.000	126.615	80.008	19.992	104.030	19.976	2.357	0.356
81.499	126.843	80.008	19.994	104.027	19.979	2.205	0.372
81.999	127.006	80.007	19.993	104.025	19.978	2.267	0.400
82.499	127.164	80.008	19.993	104.025	19.976	2.378	0.357
82.999	127.383	80.009	19.994	104.025	19.978	2.262	0.349
83.499	127.561	80.008	19.994	104.024	19.980	2.147	0.387
83.999	127.765	80.007	19.993	104.024	19.980	2.140	0.389
84.499	127.935	80.007	19.993	104.022	19.981	2.035	0.378
84.999	128.134	80.008	19.994	104.022	19.979	2.182	0.372
85.499	128.339	80.008	19.993	104.022	19.977	2.342	0.387
85.999	128.506	80.008	19.993	104.023	19.978	2.267	0.388
86.499	128.724	80.007	19.993	104.025	19.978	2.258	0.378
86.999	128.914	80.007	19.994	104.027	19.980	2.125	0.396
87.499	129.146	80.008	19.993	104.029	19.982	1.947	0.415
87.999	129.341	80.007	19.993	104.034	19.981	2.021	0.425
88.499	129.520	80.008	19.993	104.037	19.979	2.162	0.400
88.999	129.708	80.007	19.993	104.036	19.980	2.091	0.370
89.499	129.901	80.006	19.993	104.034	19.982	2.004	0.374
89.999	130.099	80.008	19.993	104.032	19.980	2.096	0.386
90.499	130.329	80.008	19.994	104.022	19.980	2.102	0.409
90.999	130.524	80.007	19.994	104.014	19.984	1.846	0.427
91.499	130.725	80.006	19.994	104.014	19.982	1.966	0.411
91.999	130.907	80.007	19.993	104.013	19.980	2.087	0.390
92.499	131.120	80.006	19.994	104.013	19.980	2.133	0.389
92.999	131.321	80.007	19.994	104.018	19.982	1.999	0.404
93.499	131.526	80.008	19.994	104.018	19.981	2.026	0.410
93.999	131.728	80.008	19.993	104.014	19.983	1.908	0.407
94.499	131.930	80.007	19.993	104.011	19.980	2.102	0.405
94.999	132.118	80.007	19.995	104.008	19.980	2.113	0.397
95.499	132.345	80.007	19.994	104.005	19.980	2.127	0.403
95.999	132.521	80.008	19.993	104.006	19.983	1.945	0.410
96.499	132.718	80.008	19.993	104.010	19.981	2.063	0.388
96.999	132.970	80.007	19.994	104.013	19.978	2.216	0.411
97.499	133.170	80.007	19.994	104.013	19.982	1.947	0.451
98.000	133.373	80.007	19.994	104.015	19.981	2.017	0.427
98.500	133.618	80.008	19.994	104.016	19.984	1.868	0.425
98.999	133.815	80.008	19.994	104.017	19.981	2.039	0.445
99.499	134.051	80.007	19.993	104.018	19.983	1.943	0.438
99.999	134.223	80.008	19.994	104.021	19.982	1.971	0.420
100.499	134.425	80.009	19.993	104.023	19.983	1.897	0.391
100.999	134.683	80.008	19.993	104.022	19.982	1.967	0.417
101.499	134.884	80.009	19.993	104.022	19.982	1.980	0.459
101.999	135.103	80.009	19.994	104.028	19.984	1.854	0.439
102.499	135.321	80.009	19.994	104.034	19.983	1.928	0.429
102.999	135.554	80.010	19.993	104.035	19.984	1.844	0.444
103.499	135.770	80.010	19.992	104.037	19.986	1.730	0.450
104.000	135.981	80.009	19.995	104.037	19.986	1.739	0.438
104.500	136.188	80.010	19.994	104.030	19.982	1.950	0.423
104.999	136.411	80.010	19.994	104.024	19.985	1.785	0.424
105.499	136.628	80.009	19.994	104.022	19.985	1.792	0.434
105.999	136.874	80.010	19.992	104.022	19.985	1.763	0.451
106.499	137.130	80.010	19.994	104.022	19.985	1.811	0.483
106.999	137.324	80.009	19.993	104.022	19.984	1.864	0.476
107.499	137.548	80.010	19.993	104.022	19.985	1.750	0.435
108.000	137.748	80.009	19.993	104.023	19.984	1.851	0.421
108.500	137.944	80.010	19.992	104.023	19.983	1.918	0.410
108.999	138.166	80.010	19.993	104.024	19.984	1.879	0.407
109.499	138.455	80.009	19.992	104.024	19.984	1.855	0.464
109.999	138.634	80.009	19.993	104.024	19.984	1.838	0.490
110.499	138.856	80.009	19.993	104.023	19.983	1.914	0.435
110.999	139.062	80.010	19.992	104.019	19.985	1.750	0.415
111.499	139.294	80.008	19.993	104.012	19.983	1.934	0.433
111.999	139.577	80.009	19.994	104.004	19.983	1.892	0.476
112.499	139.782	80.008	19.993	103.997	19.982	1.951	0.501
112.999	139.976	80.009	19.992	103.990	19.983	1.897	0.443
113.499	140.225	80.009	19.992	103.989	19.982	1.975	0.421
113.999	140.433	80.009	19.992	103.994	19.984	1.815	0.450
114.499	140.663	80.009	19.992	104.002	19.985	1.781	0.447
114.999	140.872	80.008	19.993	104.007	19.983	1.912	0.438
115.499	141.114	80.009	19.993	104.009	19.984	1.873	0.445
115.999	141.338	80.009	19.993	104.008	19.983	1.936	0.459
116.499	141.588	80.008	19.993	104.007	19.986	1.702	0.471
116.999	141.841	80.008	19.993	104.007	19.988	1.555	0.489
117.499	142.042	80.008	19.993	104.010	19.984	1.825	0.478
117.999	142.285	80.008	19.993	104.016	19.988	1.584	0.449
118.499	142.509	80.008	19.993	104.022	19.988	1.562	0.456
118.999	142.725	80.008	19.993	104.024	19.990	1.465	0.454
119.499	142.969	80.007	19.994	104.023	19.988	1.579	0.450
119.999	143.229	80.009	19.993	104.023	19.988	1.596	0.482
120.499	143.404	80.008	19.993	104.020	19.987	1.662	0.470
120.999	143.656	80.009	19.992	104.020	19.988	1.606	0.431
121.499	143.916	80.009	19.994	104.020	19.987	1.645	0.469
121.999	144.097	80.008	19.993	104.018	19.988	1.568	0.477
122.499	144.342	80.009	19.993	104.018	19.986	1.744	0.434
122.999	144.591	80.008	19.993	104.021	19.986	1.721	0.460
123.499	144.805	80.009	19.993	104.020	19.989	1.518	0.478
123.999	145.024	80.010	19.994	104.021	19.988	1.546	0.448
124.499	145.262	80.009	19.994	104.022	19.990	1.465	0.445
124.999	145.494	80.008	19.993	104.023	19.987	1.645	0.464
125.499	145.731	80.009	19.993	104.022	19.988	1.581	0.470
125.999	145.965	80.009	19.992	104.016	19.988	1.586	0.470
126.499	146.181	80.008	19.994	104.013	19.988	1.582	0.460
126.999	146.392	80.009	19.994	104.013	19.990	1.444	0.438
127.499	146.610	80.009	19.994	104.010	19.989	1.481	0.428
127.999	146.886	80.010	19.993	104.008	19.990	1.474	0.461
128.500	147.117	80.008	19.994	104.012	19.987	1.621	0.500
129.000	147.350	80.009	19.993	104.015	19.990	1.430	0.486
129.500	147.593	80.009	19.993	104.015	19.989	1.520	0.470
130.000	147.838	80.007	19.993	104.019	19.988	1.558	0.482
130.500	148.089	80.010	19.994	104.020	19.989	1.542	0.492
131.000	148.275	80.009	19.993	104.019	19.990	1.413	0.466
131.500	148.578	80.009	19.994	104.016	19.991	1.360	0.463
132.000	148.836	80.009	19.993	104.016	19.989	1.492	0.525
132.500	149.050	80.008	19.993	104.011	19.990	1.431	0.517
133.000	149.306	80.009	19.993	104.011	19.990	1.422	0.471
133.500	149.544	80.009	19.993	104.009	19.990	1.435	0.482
134.000	149.776	80.010	19.994	104.012	19.990	1.452	0.482
134.500	150.045	80.010	19.993	104.014	19.989	1.520	0.485
135.000	150.277	80.007	19.994	104.017	19.987	1.671	0.501
135.500	150.504	80.009	19.993	104.014	19.989	1.485	0.480
136.000	150.734	80.008	19.994	104.014	19.992	1.295	0.458
136.500	150.973	80.009	19.993	104.010	19.991	1.360	0.463
137.000	151.235	80.007	19.994	104.009	19.990	1.428	0.485
137.500	151.462	80.007	19.994	104.006	19.989	1.479	0.494
138.000	151.715	80.008	19.993	104.010	19.988	1.610	0.485
138.500	151.922	80.007	19.994	104.007	19.993	1.225	0.470
139.000	152.183	80.008	19.993	104.005	19.991	1.404	0.464
139.500	152.425	80.008	19.994	103.999	19.994	1.194	0.486
140.000	152.646	80.006	19.993	103.996	19.992	1.323	0.483
140.500	152.897	80.007	19.993	103.989	19.993	1.245	0.467
141.000	153.143	80.007	19.994	103.991	19.988	1.553	0.484
141.500	153.413	80.007	19.994	103.996	19.991	1.380	0.506
142.000	153.635	80.007	19.994	103.998	19.991	1.391	0.504
142.500	153.859	80.007	19.993	103.998	19.988	1.582	0.469
143.000	154.090	80.008	19.994	103.999	19.993	1.251	0.450
143.500	154.323	80.007	19.994	103.995	19.991	1.374	0.460
144.000	154.595	80.006	19.994	103.994	19.993	1.266	0.485
144.500	154.809	80.007	19.995	103.999	19.994	1.207	0.495
145.000	155.071	80.006	19.993	104.005	19.994	1.188	0.481
145.500	155.315	80.007	19.994	104.012	19.992	1.317	0.491
146.000	155.552	80.006	19.994	104.019	19.993	1.240	0.493
146.500	155.792	80.007	19.995	104.016	19.993	1.249	0.479
147.000	156.058	80.007	19.994	104.010	19.996	1.014	0.491
147.500	156.302	80.008	19.993	104.002	19.992	1.297	0.508
148.000	156.582	80.006	19.994	103.995	19.993	1.269	0.517
148.500	156.772	80.007	19.994	103.988	19.993	1.216	0.497
149.000	157.001	80.007	19.995	103.985	19.997	0.992	0.445
149.500	157.257	80.007	19.994	103.984	19.995	1.107	0.452
150.000	157.507	80.007	19.995	103.984	19.997	1.004	0.496
150.500	157.763	80.006	19.994	103.984	19.993	1.273	0.506
151.000	157.990	80.007	19.994	103.985	19.998	0.923	0.494
151.500	158.238	80.007	19.993	103.985	19.996	1.010	0.479
152.000	158.485	80.007	19.995	103.987	19.997	0.942	0.485
152.500	158.740	80.006	19.994	103.990	19.996	1.043	0.498
153.000	159.007	80.007	19.995	103.993	19.996	1.015	0.512
153.500	159.212	80.007	19.995	103.992	19.995	1.141	0.498
154.000	159.461	80.007	19.995	103.992	19.997	0.960	0.463
154.500	159.705	80.007	19.995	103.991	20.000	0.776	0.473
155.000	159.944	80.006	19.995	103.991	19.995	1.089	0.488
155.500	160.189	80.006	19.995	103.989	19.995	1.106	0.484
156.000	160.441	80.007	19.996	103.989	19.997	1.006	0.490
156.500	160.686	80.007	19.994	103.989	19.996	1.032	0.497
157.000	160.939	80.006	19.995	103.989	19.996	1.030	0.498
157.500	161.177	80.007	19.995	103.986	19.997	0.951	0.495
158.000	161.437	80.008	19.995	103.985	19.998	0.933	0.494
158.500	161.673	80.007	19.994	103.984	19.999	0.821	0.497
159.000	161.930	80.007	19.994	103.984	20.000	0.795	0.495
159.500	162.154	80.007	19.994	103.983	20.001	0.710	0.487
160.000	162.409	80.007	19.995	103.982	20.000	0.771	0.479
160.500	162.641	80.006	19.996	103.982	19.997	1.006	0.483
161.000	162.864	80.007	19.995	103.982	19.996	1.061	0.472
161.500	163.128	80.006	19.994	103.981	19.999	0.850	0.471
162.000	163.363	80.007	19.994	103.981	19.998	0.931	0.493
162.500	163.597	80.007	19.994	103.981	20.001	0.717	0.484
163.000	163.859	80.007	19.994	103.978	20.000	0.806	0.482
163.500	164.112	80.006	19.993	103.978	19.999	0.832	0.505
164.000	164.365	80.007	19.995	103.978	20.002	0.644	0.510
164.500	164.633	80.007	19.994	103.978	20.003	0.580	0.514
165.000	164.875	80.006	19.994	103.979	20.003	0.554	0.516
165.500	165.124	80.008	19.995	103.982	20.005	0.430	0.501
166.000	165.339	80.007	19.996	103.984	20.004	0.488	0.477
166.500	165.599	80.008	19.995	103.985	20.003	0.574	0.469
167.000	165.824	80.007	19.995	103.990	20.003	0.565	0.480
167.500	166.114	80.008	19.996	103.994	20.002	0.638	0.500
168.000	166.370	80.007	19.994	103.993	20.001	0.686	0.530
168.500	166.574	80.007	19.995	103.993	20.005	0.467	0.504
169.000	166.799	80.007	19.994	103.993	20.000	0.793	0.445
169.500	167.047	80.008	19.994	103.988	20.000	0.740	0.451
170.000	167.289	80.007	19.994	103.982	19.999	0.824	0.481
170.500	167.548	80.007	19.995	103.982	20.003	0.556	0.495
171.000	167.774	80.008	19.994	103.983	19.999	0.865	0.493
171.500	168.023	80.008	19.994	103.983	20.000	0.786	0.480
172.000	168.283	80.007	19.994	103.984	19.999	0.870	0.492
172.500	168.494	80.006	19.994	103.985	20.002	0.648	0.490
173.000	168.766	80.006	19.994	103.986	20.001	0.706	0.477
173.500	169.009	80.006	19.995	103.985	20.001	0.706	0.499
174.000	169.252	80.006	19.994	103.986	20.000	0.780	0.501
174.500	169.509	80.006	19.993	103.986	20.003	0.598	0.492
175.000	169.709	80.006	19.994	103.986	20.004	0.510	0.478
175.500	169.975	80.005	19.994	103.986	19.999	0.850	0.462
176.000	170.204	80.006	19.994	103.987	20.000	0.798	0.481
176.500	170.506	80.007	19.993	103.986	20.000	0.743	0.513
177.000	170.703	80.007	19.993	103.986	20.002	0.625	0.515
177.500	170.988	80.006	19.994	103.983	20.000	0.752	0.490
178.000	171.243	80.006	19.992	103.982	20.002	0.657	0.511
178.500	171.462	80.007	19.993	103.982	20.002	0.649	0.507
179.000	171.688	80.007	19.994	103.982	20.003	0.568	0.459
179.500	171.959	80.008	19.994	103.984	20.001	0.690	0.471
180.000	172.221	80.008	19.993	103.986	20.000	0.752	0.515
180.500	172.435	80.007	19.994	103.985	20.001	0.686	0.504
181.000	172.655	80.007	19.993	103.986	20.005	0.421	0.455
181.500	172.937	80.007	19.994	103.985	20.002	0.624	0.468
182.000	173.166	80.008	19.993	103.985	20.003	0.585	0.506
182.500	173.419	80.009	19.994	103.986	20.006	0.401	0.497
183.000	173.669	80.009	19.993	103.987	20.005	0.414	0.493
183.500	173.889	80.009	19.993	103.987	20.004	0.511	0.486
184.000	174.143	80.009	19.994	103.987	20.004	0.475	0.472
184.500	174.388	80.010	19.993	103.987	20.003	0.545	0.487
185.000	174.593	80.009	19.993	103.987	20.006	0.397	0.474
185.500	174.832	80.008	19.993	103.986	20.005	0.436	0.447
186.000	175.115	80.008	19.994	103.985	20.004	0.535	0.483
186.500	175.303	80.008	19.993	103.985	20.004	0.475	0.497
187.000	175.540	80.009	19.993	103.985	20.005	0.410	0.448
187.500	175.804	80.008	19.992	103.983	20.004	0.476	0.462
188.000	176.089	80.008	19.993	103.979	20.004	0.478	0.525
188.500	176.329	80.009	19.993	103.978	20.007	0.320	0.537
189.000	176.533	80.009	19.993	103.979	20.005	0.451	0.485
189.500	176.764	80.008	19.993	103.977	20.007	0.270	0.440
190.000	177.039	80.010	19.993	103.976	20.008	0.250	0.470
190.500	177.282	80.008	19.993	103.981	20.006	0.346	0.512
191.000	177.537	80.008	19.994	103.981	20.004	0.522	0.508
191.500	177.770	80.006	19.993	103.980	20.004	0.493	0.493
192.000	178.033	80.008	19.993	103.976	20.003	0.552	0.491
192.500	178.277	80.008	19.994	103.973	20.003	0.576	0.501
193.000	178.511	80.008	19.993	103.972	20.006	0.359	0.493
193.500	178.753	80.008	19.993	103.971	20.009	0.180	0.477
194.000	178.966	80.007	19.994	103.973	20.006	0.350	0.465
194.500	179.241	80.008	19.993	103.979	20.008	0.224	0.471
195.000	179.481	80.009	19.993	103.985	20.007	0.289	0.502
195.500	179.697	80.007	19.994	103.987	20.009	0.188	0.486
196.000	180.008	80.009	19.993	103.988	20.006	0.366	0.492
196.500	180.249	80.010	19.993	103.988	20.011	0.017	0.540
197.000	180.472	80.011	19.993	103.988	20.009	0.136	0.508
197.500	180.717	80.007	19.993	103.986	20.008	0.219	0.466
198.000	180.961	80.009	19.994	103.982	20.009	0.195	0.479
198.500	181.191	80.009	19.994	103.977	20.014	-0.180	0.482
199.000	181.454	80.008	19.993	103.973	20.013	-0.077	0.484
199.500	181.719	80.008	19.993	103.967	20.011	0.029	0.510
200.000	181.964	80.009	19.993	103.961	20.014	-0.177	0.519
200.500	182.203	80.008	19.993	103.957	20.014	-0.184	0.497
201.000	182.453	80.009	19.993	103.959	20.010	0.134	0.487
201.500	182.677	80.009	19.994	103.962	20.009	0.149	0.482
202.000	182.891	80.010	19.993	103.968	20.014	-0.132	0.456
202.500	183.169	80.009	19.993	103.975	20.015	-0.206	0.465
203.000	183.430	80.010	19.993	103.981	20.009	0.140	0.515
203.500	183.669	80.011	19.993	103.984	20.013	-0.129	0.519
204.000	183.919	80.009	19.993	103.981	20.011	0.042	0.494
204.500	184.159	80.009	19.993	103.981	20.011	0.004	0.489
205.000	184.378	80.010	19.993	103.980	20.014	-0.184	0.474
205.500	184.673	80.010	19.994	103.979	20.013	-0.110	0.487
206.000	184.918	80.010	19.992	103.976	20.012	-0.055	0.527
206.500	185.149	80.010	19.993	103.973	20.012	-0.015	0.508
207.000	185.426	80.010	19.993	103.967	20.010	0.114	0.492
207.500	185.673	80.009	19.992	103.965	20.012	-0.040	0.516
208.000	185.906	80.011	19.993	103.962	20.011	0.053	0.502
208.500	186.160	80.009	19.992	103.960	20.015	-0.210	0.484
209.000	186.441	80.010	19.992	103.959	20.009	0.164	0.511
209.500	186.683	80.011	19.992	103.957	20.012	-0.059	0.529
210.000	186.962	80.012	19.993	103.953	20.012	-0.024	0.523
210.500	187.179	80.010	19.993	103.951	20.011	0.068	0.509
211.000	187.412	80.011	19.992	103.949	20.012	-0.055	0.473
211.500	187.646	80.010	19.992	103.948	20.012	-0.033	0.459
212.000	187.921	80.011	19.992	103.949	20.013	-0.074	0.488
212.500	188.172	80.010	19.993	103.954	20.013	-0.079	0.517
213.000	188.412	80.010	19.993	103.960	20.010	0.116	0.508
213.500	188.674	80.010	19.993	103.965	20.012	-0.017	0.496
214.000	188.899	80.010	19.995	103.968	20.011	0.006	0.495
214.500	189.158	80.010	19.994	103.971	20.012	-0.046	0.486
215.000	189.384	80.010	19.993	103.968	20.010	0.116	0.485
215.500	189.631	80.009	19.993	103.964	20.012	-0.050	0.479
216.000	189.875	80.010	19.993	103.964	20.014	-0.140	0.481
216.500	190.134	80.008	19.992	103.965	20.009	0.145	0.497
217.000	190.388	80.010	19.993	103.965	20.014	-0.188	0.508
217.500	190.610	80.008	19.994	103.964	20.011	0.039	0.495
218.000	190.890	80.008	19.994	103.964	20.011	0.037	0.489
218.500	191.122	80.008	19.993	103.965	20.009	0.191	0.507
219.000	191.349	80.008	19.994	103.966	20.011	0.046	0.485
219.500	191.585	80.009	19.994	103.969	20.012	0.000	0.461
220.000	191.824	80.007	19.993	103.974	20.012	-0.055	0.469
220.500	192.084	80.008	19.994	103.977	20.011	0.020	0.487
221.000	192.321	80.007	19.995	103.978	20.012	-0.044	0.498
221.500	192.560	80.007	19.994	103.979	20.012	-0.051	0.487
222.000	192.794	80.007	19.994	103.976	20.011	0.024	0.474
222.500	193.068	80.007	19.994	103.968	20.012	-0.037	0.490
223.000	193.316	80.008	19.994	103.962	20.015	-0.213	0.515
223.500	193.547	80.007	19.993	103.957	20.012	-0.050	0.501
224.000	193.797	80.007	19.995	103.951	20.011	0.042	0.480
224.500	194.057	80.007	19.995	103.952	20.015	-0.245	0.495
225.000	194.333	80.007	19.995	103.952	20.015	-0.239	0.523
225.500	194.561	80.007	19.994	103.951	20.013	-0.085	0.521
226.000	194.826	80.008	19.995	103.950	20.011	0.037	0.498
226.500	194.993	80.006	19.994	103.949	20.012	-0.017	0.462
227.000	195.303	80.008	19.994	103.947	20.011	0.033	0.455
227.500	195.508	80.007	19.995	103.947	20.011	0.011	0.496
228.000	195.765	80.008	19.994	103.947	20.012	-0.055	0.489
228.500	196.024	80.007	19.994	103.946	20.015	-0.213	0.489
229.000	196.261	80.008	19.995	103.946	20.014	-0.162	0.506
229.500	196.461	80.009	19.995	103.946	20.013	-0.077	0.467
230.000	196.689	80.008	19.995	103.946	20.012	-0.040	0.433
230.500	196.976	80.009	19.994	103.946	20.010	0.101	0.472
231.000	197.214	80.009	19.994	103.945	20.014	-0.173	0.520
231.500	197.482	80.008	19.994	103.947	20.011	0.009	0.515
232.000	197.697	80.008	19.994	103.947	20.012	-0.039	0.494
232.500	197.970	80.008	19.994	103.947	20.012	-0.048	0.486
233.000	198.203	80.008	19.994	103.947	20.015	-0.243	0.497
233.500	198.445	80.008	19.994	103.948	20.013	-0.103	0.490
234.000	198.726	80.008	19.994	103.944	20.016	-0.289	0.499
234.500	198.928	80.008	19.993	103.943	20.011	0.009	0.503
235.000	199.223	80.007	19.993	103.943	20.015	-0.217	0.490
235.500	199.451	80.008	19.994	103.943	20.012	-0.015	0.510
236.000	199.706	80.008	19.994	103.943	20.010	0.094	0.503
236.500	199.961	80.008	19.993	103.945	20.014	-0.177	0.497
237.000	200.202	80.007	19.994	103.947	20.015	-0.234	0.503
237.500	200.421	80.009	19.993	103.947	20.017	-0.373	0.478
238.000	200.677	80.008	19.994	103.947	20.011	0.059	0.468
238.500	200.951	80.007	19.994	103.950	20.015	-0.224	0.502
239.000	201.181	80.007	19.994	103.950	20.016	-0.326	0.517
239.500	201.430	80.008	19.992	103.951	20.014	-0.138	0.491
240.000	201.667	80.009	19.993	103.951	20.011	0.029	0.482
240.500	201.927	80.008	19.993	103.953	20.015	-0.234	0.491
241.000	202.188	80.009	19.994	103.953	20.016	-0.314	0.509
241.500	202.405	80.008	19.993	103.955	20.018	-0.421	0.500
242.000	202.676	80.008	19.994	103.955	20.016	-0.269	0.483
242.500	202.923	80.008	19.993	103.958	20.015	-0.228	0.503
243.000	203.128	80.008	19.994	103.957	20.019	-0.484	0.485
243.500	203.403	80.009	19.995	103.957	20.020	-0.546	0.466
244.000	203.644	80.007	19.994	103.955	20.018	-0.416	0.498
244.500	203.908	80.007	19.994	103.955	20.015	-0.245	0.510
245.000	204.140	80.006	19.993	103.956	20.013	-0.125	0.500
245.500	204.408	80.008	19.994	103.957	20.020	-0.557	0.498
246.000	204.594	80.007	19.995	103.956	20.018	-0.417	0.477
246.500	204.873	80.007	19.995	103.955	20.016	-0.331	0.460
247.000	205.101	80.007	19.995	103.955	20.017	-0.353	0.486
247.500	205.374	80.007	19.994	103.953	20.022	-0.719	0.504
248.000	205.613	80.006	19.995	103.952	20.017	-0.362	0.506
248.500	205.862	80.007	19.995	103.952	20.016	-0.326	0.500
249.000	206.112	80.006	19.993	103.951	20.017	-0.357	0.493
249.500	206.364	80.006	19.995	103.950	20.020	-0.555	0.500
250.000	206.614	80.006	19.994	103.950	20.020	-0.568	0.502
250.500	206.830	80.006	19.995	103.950	20.020	-0.594	0.484
251.000	207.121	80.006	19.996	103.950	20.018	-0.401	0.486
251.500	207.397	80.006	19.995	103.951	20.020	-0.577	0.537
252.000	207.637	80.006	19.995	103.953	20.019	-0.497	0.542
252.500	207.886	80.006	19.994	103.951	20.019	-0.486	0.503
253.000	208.143	80.005	19.994	103.951	20.019	-0.469	0.497
253.500	208.368	80.005	19.994	103.950	20.021	-0.611	0.494
254.000	208.668	80.007	19.995	103.949	20.018	-0.403	0.503
254.500	208.885	80.006	19.994	103.948	20.019	-0.493	0.521
255.000	209.208	80.006	19.995	103.950	20.019	-0.474	0.529
255.500	209.386	80.005	19.994	103.951	20.019	-0.502	0.521
256.000	209.633	80.006	19.994	103.951	20.020	-0.552	0.463
256.500	209.918	80.005	19.994	103.951	20.019	-0.504	0.478
257.000	210.132	80.006	19.994	103.951	20.019	-0.471	0.515
257.500	210.384	80.005	19.994	103.949	20.020	-0.594	0.483
258.000	210.606	80.006	19.994	103.948	20.018	-0.434	0.470
258.500	210.896	80.006	19.993	103.949	20.019	-0.478	0.493
259.000	211.103	80.006	19.993	103.952	20.020	-0.592	0.504
259.500	211.415	80.006	19.993	103.952	20.021	-0.625	0.508
260.000	211.694	80.007	19.995	103.953	20.015	-0.215	0.555
260.500	211.857	80.008	19.995	103.953	20.020	-0.577	0.517
261.000	212.220	80.008	19.995	103.953	20.019	-0.520	0.484
261.500	212.446	80.007	19.994	103.953	20.019	-0.508	0.557
262.000	212.655	80.008	19.994	103.955	20.021	-0.609	0.512
262.500	212.883	80.008	19.994	103.955	20.021	-0.645	0.436
263.000	213.153	80.008	19.994	103.955	20.021	-0.607	0.467
263.500	213.391	80.007	19.993	103.954	20.021	-0.611	0.503
264.000	213.628	80.009	19.994	103.951	20.020	-0.594	0.491
264.500	213.916	80.009	19.994	103.949	20.021	-0.647	0.500
265.000	214.163	80.008	19.995	103.948	20.020	-0.583	0.531
265.500	214.394	80.008	19.994	103.947	20.019	-0.533	0.507
266.000	214.646	80.009	19.993	103.947	20.017	-0.390	0.480
266.500	214.855	80.009	19.993	103.947	20.019	-0.515	0.472
267.000	215.168	80.009	19.994	103.947	20.018	-0.427	0.491
267.500	215.409	80.009	19.993	103.946	20.022	-0.669	0.538
268.000	215.675	80.009	19.994	103.946	20.021	-0.640	0.530
268.500	215.931	80.009	19.993	103.945	20.020	-0.550	0.515
269.000	216.150	80.008	19.994	103.945	20.020	-0.588	0.499
269.500	216.441	80.010	19.993	103.946	20.023	-0.745	0.493
270.000	216.687	80.008	19.992	103.946	20.023	-0.754	0.523
270.500	216.938	80.009	19.993	103.947	20.023	-0.741	0.517
271.000	217.166	80.008	19.992	103.948	20.022	-0.671	0.488
271.500	217.433	80.008	19.994	103.948	20.022	-0.699	0.487
272.000	217.667	80.009	19.994	103.947	20.022	-0.679	0.498
272.500	217.907	80.008	19.993	103.947	20.024	-0.859	0.488
273.000	218.157	80.008	19.993	103.946	20.025	-0.921	0.482
273.500	218.402	80.008	19.993	103.945	20.022	-0.684	0.492
274.000	218.650	80.008	19.993	103.945	20.023	-0.798	0.494
274.500	218.932	80.007	19.994	103.945	20.023	-0.793	0.511
275.000	219.158	80.007	19.993	103.945	20.023	-0.787	0.519
275.500	219.442	80.008	19.992	103.946	20.020	-0.583	0.509
276.000	219.680	80.008	19.992	103.946	20.021	-0.634	0.516
276.500	219.913	80.008	19.994	103.946	20.026	-0.999	0.497
277.000	220.175	80.008	19.993	103.946	20.022	-0.680	0.483
277.500	220.436	80.008	19.994	103.945	20.022	-0.702	0.509
278.000	220.669	80.008	19.993	103.945	20.022	-0.730	0.509
278.500	220.958	80.009	19.994	103.943	20.022	-0.699	0.508
279.000	221.205	80.007	19.994	103.943	20.025	-0.905	0.529
279.500	221.434	80.009	19.994	103.943	20.024	-0.815	0.506
280.000	221.693	80.008	19.993	103.943	20.024	-0.837	0.482
280.500	221.933	80.007	19.994	103.942	20.024	-0.848	0.493
281.000	222.193	80.008	19.994	103.943	20.024	-0.848	0.499
281.500	222.475	80.007	19.994	103.942	20.025	-0.874	0.521
282.000	222.734	80.008	19.993	103.942	20.025	-0.914	0.542
282.500	222.956	80.009	19.993	103.941	20.026	-0.945	0.511
283.000	223.218	80.009	19.993	103.941	20.021	-0.668	0.483
283.500	223.444	80.008	19.993	103.941	20.024	-0.804	0.486
284.000	223.732	80.007	19.995	103.942	20.022	-0.726	0.500
284.500	224.029	80.010	19.994	103.942	20.021	-0.653	0.549
285.000	224.216	80.009	19.996	103.944	20.024	-0.813	0.535
285.500	224.519	80.010	19.994	103.944	20.026	-0.986	0.487
286.000	224.739	80.009	19.994	103.945	20.024	-0.844	0.506
286.500	225.022	80.010	19.995	103.945	20.026	-0.995	0.513
287.000	225.276	80.010	19.994	103.945	20.023	-0.800	0.520
287.500	225.499	80.009	19.993	103.944	20.025	-0.879	0.507
288.000	225.752	80.009	19.993	103.944	20.027	-1.055	0.477
288.500	226.015	80.011	19.993	103.944	20.024	-0.859	0.496
289.000	226.278	80.009	19.993	103.944	20.024	-0.813	0.521
289.500	226.537	80.010	19.994	103.944	20.024	-0.813	0.524
290.000	226.780	80.010	19.993	103.944	20.025	-0.888	0.512
290.500	227.038	80.010	19.994	103.945	20.024	-0.827	0.502
291.000	227.285	80.011	19.993	103.945	20.023	-0.761	0.503
291.500	227.538	80.011	19.993	103.945	20.026	-1.002	0.503
292.000	227.786	80.009	19.994	103.945	20.028	-1.089	0.501
292.500	228.017	80.011	19.994	103.945	20.027	-1.035	0.490
293.000	228.299	80.011	19.993	103.944	20.025	-0.929	0.496
293.500	228.557	80.010	19.993	103.943	20.030	-1.206	0.526
294.000	228.827	80.009	19.993	103.941	20.028	-1.098	0.534
294.500	229.092	80.009	19.992	103.941	20.028	-1.123	0.532
295.000	229.343	80.010	19.993	103.940	20.027	-1.039	0.526
295.500	229.617	80.010	19.993	103.940	20.028	-1.111	0.521
296.000	229.871	80.011	19.992	103.940	20.029	-1.138	0.527
296.500	230.134	80.009	19.992	103.943	20.029	-1.138	0.522
297.000	230.341	80.009	19.994	103.943	20.031	-1.283	0.493
297.500	230.620	80.008	19.993	103.942	20.031	-1.280	0.478
298.000	230.878	80.008	19.994	103.939	20.028	-1.094	0.511
298.500	231.118	80.008	19.993	103.938	20.031	-1.294	0.517
299.000	231.378	80.008	19.993	103.936	20.030	-1.270	0.499
299.500	231.635	80.009	19.994	103.934	20.030	-1.224	0.509
300.000	231.867	80.007	19.993	103.934	20.028	-1.105	0.503
300.500	232.142	80.006	19.993	103.937	20.028	-1.122	0.498
301.000	232.366	80.008	19.994	103.936	20.028	-1.131	0.503
301.500	232.594	80.008	19.993	103.936	20.027	-1.020	0.475
302.000	232.882	80.007	19.994	103.936	20.028	-1.094	0.484
302.500	233.112	80.007	19.994	103.936	20.028	-1.077	0.517
303.000	233.356	80.007	19.994	103.932	20.031	-1.304	0.496
303.500	233.598	80.008	19.994	103.931	20.027	-1.033	0.480
304.000	233.867	80.007	19.994	103.933	20.028	-1.124	0.499
304.500	234.107	80.007	19.993	103.935	20.029	-1.199	0.510
305.000	234.360	80.007	19.992	103.932	20.028	-1.109	0.501
305.500	234.643	80.007	19.993	103.932	20.027	-1.059	0.515
306.000	234.869	80.006	19.993	103.934	20.026	-0.941	0.523
306.500	235.132	80.007	19.993	103.933	20.026	-0.982	0.499
307.000	235.362	80.007	19.993	103.933	20.026	-1.000	0.491
307.500	235.659	80.008	19.993	103.938	20.027	-1.057	0.510
308.000	235.887	80.008	19.994	103.936	20.026	-0.974	0.526
308.500	236.138	80.007	19.994	103.931	20.026	-0.976	0.502
309.000	236.415	80.007	19.993	103.925	20.025	-0.934	0.504
309.500	236.686	80.007	19.993	103.922	20.027	-1.052	0.538
310.000	236.894	80.007	19.994	103.919	20.027	-1.026	0.514
310.500	237.159	80.006	19.994	103.920	20.026	-1.000	0.476
311.000	237.447	80.006	19.994	103.922	20.025	-0.916	0.513
311.500	237.665	80.007	19.993	103.924	20.027	-1.056	0.529
312.000	237.913	80.007	19.994	103.922	20.026	-0.938	0.486
312.500	238.177	80.007	19.994	103.919	20.026	-1.000	0.489
313.000	238.446	80.006	19.993	103.922	20.028	-1.135	0.523
313.500	238.639	80.007	19.995	103.927	20.025	-0.881	0.498
314.000	238.910	80.006	19.994	103.932	20.026	-0.949	0.463
314.500	239.156	80.007	19.994	103.937	20.026	-0.995	0.490
315.000	239.423	80.008	19.994	103.937	20.027	-1.039	0.515
315.500	239.660	80.008	19.994	103.931	20.027	-1.039	0.509
316.000	239.900	80.006	19.993	103.924	20.024	-0.850	0.491
316.500	240.125	80.008	19.994	103.923	20.030	-1.230	0.471
317.000	240.403	80.007	19.995	103.921	20.029	-1.195	0.484
317.500	240.673	80.007	19.994	103.924	20.029	-1.158	0.525
318.000	240.925	80.007	19.994	103.925	20.025	-0.894	0.535
318.500	241.143	80.007	19.993	103.929	20.027	-1.059	0.496
319.000	241.397	80.007	19.995	103.925	20.027	-1.028	0.471
319.500	241.657	80.007	19.995	103.926	20.030	-1.208	0.493
320.000	241.930	80.007	19.994	103.930	20.027	-1.065	0.523
320.500	242.146	80.008	19.994	103.936	20.028	-1.103	0.511
321.000	242.418	80.008	19.994	103.938	20.027	-1.037	0.489
321.500	242.649	80.008	19.993	103.944	20.028	-1.103	0.496
322.000	242.916	80.008	19.994	103.947	20.027	-1.015	0.500
322.500	243.205	80.008	19.993	103.950	20.029	-1.153	0.527
323.000	243.436	80.008	19.993	103.950	20.028	-1.135	0.538
323.500	243.660	80.008	19.993	103.950	20.029	-1.153	0.487
324.000	243.918	80.007	19.994	103.950	20.027	-1.048	0.468
324.500	244.146	80.008	19.994	103.950	20.027	-1.054	0.484
325.000	244.438	80.007	19.993	103.947	20.026	-0.980	0.504
325.500	244.672	80.008	19.993	103.944	20.028	-1.085	0.523
326.000	244.941	80.006	19.993	103.944	20.029	-1.173	0.514
326.500	245.181	80.008	19.994	103.944	20.030	-1.254	0.505
327.000	245.437	80.007	19.994	103.941	20.032	-1.348	0.502
327.500	245.721	80.007	19.993	103.937	20.030	-1.239	0.518
328.000	245.924	80.008	19.994	103.933	20.030	-1.230	0.513
328.500	246.173	80.007	19.994	103.926	20.029	-1.184	0.470
329.000	246.426	80.008	19.994	103.924	20.031	-1.272	0.478
329.500	246.703	80.007	19.993	103.925	20.028	-1.112	0.516
330.000	246.984	80.007	19.994	103.925	20.028	-1.103	0.544
330.500	247.229	80.008	19.994	103.928	20.027	-1.053	0.542
331.000	247.461	80.006	19.993	103.929	20.030	-1.221	0.501
331.500	247.723	80.007	19.994	103.929	20.029	-1.138	0.486
332.000	247.957	80.006	19.995	103.930	20.029	-1.175	0.495
332.500	248.196	80.008	19.994	103.934	20.026	-0.945	0.484
333.000	248.483	80.007	19.994	103.937	20.026	-0.976	0.499
333.500	248.751	80.007	19.994	103.941	20.027	-1.039	0.540
334.000	248.995	80.007	19.994	103.940	20.028	-1.101	0.534
334.500	249.240	80.007	19.994	103.939	20.030	-1.228	0.501
335.000	249.488	80.007	19.995	103.939	20.030	-1.254	0.491
335.500	249.782	80.007	19.994	103.939	20.028	-1.081	0.517
336.000	250.033	80.008	19.994	103.937	20.028	-1.070	0.543
336.500	250.284	80.007	19.994	103.937	20.029	-1.195	0.523
337.000	250.549	80.007	19.994	103.938	20.028	-1.109	0.509
337.500	250.783	80.006	19.994	103.938	20.027	-1.061	0.508
338.000	251.059	80.007	19.994	103.939	20.029	-1.140	0.504
338.500	251.342	80.007	19.994	103.939	20.028	-1.114	0.535
339.000	251.557	80.007	19.995	103.939	20.030	-1.267	0.529
339.500	251.801	80.007	19.994	103.932	20.031	-1.278	0.479
340.000	252.052	80.007	19.995	103.925	20.029	-1.166	0.477
340.500	252.371	80.009	19.994	103.918	20.028	-1.107	0.532
341.000	252.600	80.008	19.995	103.913	20.028	-1.081	0.559
341.500	252.859	80.007	19.994	103.910	20.027	-1.066	0.518
342.000	253.100	80.008	19.996	103.911	20.027	-1.066	0.494
342.500	253.335	80.006	19.996	103.913	20.029	-1.153	0.488
343.000	253.590	80.007	19.994	103.916	20.025	-0.936	0.483
343.500	253.835	80.007	19.994	103.917	20.030	-1.230	0.495
344.000	254.105	80.007	19.996	103.918	20.026	-0.958	0.508
344.500	254.312	80.008	19.996	103.923	20.028	-1.129	0.496
345.000	254.596	80.010	19.995	103.928	20.029	-1.153	0.484
345.500	254.867	80.007	19.995	103.931	20.030	-1.221	0.523
346.000	255.119	80.008	19.994	103.935	20.027	-1.039	0.539
346.500	255.373	80.008	19.994	103.937	20.028	-1.111	0.514
347.000	255.618	80.009	19.995	103.932	20.030	-1.217	0.503
347.500	255.870	80.009	19.995	103.924	20.028	-1.118	0.498
348.000	256.139	80.008	19.996	103.918	20.029	-1.142	0.508
348.500	256.356	80.008	19.995	103.913	20.026	-0.976	0.504
349.000	256.624	80.008	19.995	103.911	20.026	-1.000	0.486
349.500	256.877	80.010	19.994	103.914	20.025	-0.890	0.503
350.000	257.143	80.008	19.994	103.916	20.028	-1.123	0.520
350.500	257.362	80.007	19.995	103.915	20.026	-1.000	0.502
351.000	257.628	80.008	19.994	103.915	20.026	-0.974	0.485
351.500	257.894	80.008	19.995	103.916	20.026	-0.987	0.508
352.000	258.120	80.009	19.994	103.916	20.028	-1.101	0.511
352.500	258.373	80.008	19.994	103.916	20.028	-1.134	0.485
353.000	258.649	80.008	19.995	103.920	20.031	-1.317	0.504
353.500	258.910	80.008	19.993	103.923	20.028	-1.125	0.533
354.000	259.139	80.009	19.994	103.923	20.030	-1.225	0.513
354.500	259.370	80.010	19.994	103.921	20.028	-1.077	0.475
355.000	259.611	80.008	19.994	103.924	20.026	-0.949	0.466
355.500	259.882	80.009	19.993	103.924	20.028	-1.092	0.492
356.000	260.177	80.009	19.994	103.924	20.029	-1.171	0.539
356.500	260.427	80.008	19.993	103.927	20.028	-1.070	0.556
357.000	260.663	80.008	19.994	103.931	20.029	-1.149	0.516
357.500	260.922	80.009	19.993	103.929	20.026	-0.987	0.491
358.000	261.147	80.008	19.994	103.928	20.027	-1.013	0.490
358.500	261.432	80.009	19.994	103.924	20.029	-1.190	0.497
359.000	261.659	80.009	19.994	103.921	20.028	-1.096	0.511
359.500	261.904	80.008	19.995	103.917	20.031	-1.296	0.492
360.000	262.164	80.008	19.994	103.916	20.028	-1.092	0.488
360.500	262.428	80.008	19.993	103.916	20.032	-1.403	0.515
361.000	262.698	80.008	19.994	103.914	20.030	-1.235	0.529
361.500	262.901	80.009	19.994	103.915	20.031	-1.322	0.503
362.000	263.174	80.008	19.994	103.917	20.032	-1.371	0.475
362.500	263.432	80.009	19.994	103.920	20.030	-1.235	0.504
363.000	263.665	80.009	19.994	103.923	20.031	-1.296	0.511
363.500	263.902	80.008	19.994	103.931	20.029	-1.197	0.480
364.000	264.163	80.009	19.993	103.932	20.025	-0.877	0.484
364.500	264.432	80.009	19.994	103.934	20.029	-1.169	0.514
365.000	264.698	80.008	19.993	103.930	20.027	-1.029	0.533
365.500	264.963	80.009	19.994	103.926	20.031	-1.291	0.533
366.000	265.227	80.009	19.993	103.919	20.032	-1.377	0.530
366.500	265.467	80.009	19.993	103.915	20.029	-1.151	0.517
367.000	265.694	80.008	19.993	103.914	20.030	-1.232	0.485
367.500	265.925	80.010	19.995	103.916	20.030	-1.267	0.463
368.000	266.204	80.009	19.993	103.919	20.031	-1.281	0.484
368.500	266.452	80.010	19.994	103.921	20.031	-1.279	0.519
369.000	266.700	80.009	19.994	103.921	20.033	-1.450	0.512
369.500	266.937	80.010	19.994	103.922	20.033	-1.467	0.491
370.000	267.203	80.010	19.993	103.924	20.030	-1.234	0.494
370.500	267.477	80.009	19.994	103.925	20.032	-1.349	0.521
371.000	267.726	80.011	19.992	103.922	20.031	-1.289	0.532
371.500	267.957	80.010	19.993	103.921	20.029	-1.200	0.501
372.000	268.233	80.009	19.992	103.916	20.029	-1.178	0.493
372.500	268.487	80.010	19.993	103.915	20.029	-1.182	0.519
373.000	268.726	80.010	19.993	103.912	20.030	-1.219	0.512
373.500	268.991	80.010	19.993	103.913	20.030	-1.204	0.498
374.000	269.240	80.009	19.994	103.912	20.031	-1.274	0.509
374.500	269.493	80.010	19.993	103.911	20.030	-1.235	0.508
375.000	269.782	80.010	19.993	103.909	20.033	-1.423	0.523
375.500	270.045	80.008	19.993	103.909	20.026	-0.987	0.547
376.000	270.275	80.009	19.992	103.909	20.028	-1.127	0.522
376.500	270.550	80.009	19.993	103.909	20.028	-1.099	0.499
377.000	270.817	80.009	19.993	103.910	20.029	-1.138	0.524
377.500	271.037	80.007	19.993	103.910	20.030	-1.259	0.515
378.000	271.336	80.008	19.992	103.908	20.031	-1.327	0.503
378.500	271.541	80.008	19.993	103.908	20.030	-1.259	0.512
379.000	271.801	80.007	19.994	103.908	20.032	-1.370	0.485
379.500	272.109	80.007	19.994	103.908	20.030	-1.261	0.516
380.000	272.355	80.006	19.993	103.911	20.029	-1.140	0.561
380.500	272.598	80.007	19.994	103.912	20.030	-1.257	0.522
381.000	272.847	80.007	19.994	103.912	20.032	-1.397	0.490
381.500	273.100	80.008	19.993	103.912	20.028	-1.134	0.497
382.000	273.379	80.007	19.993	103.912	20.033	-1.412	0.517
382.500	273.643	80.006	19.992	103.909	20.028	-1.134	0.538
383.000	273.881	80.007	19.993	103.914	20.031	-1.309	0.522
383.500	274.136	80.007	19.994	103.915	20.030	-1.213	0.497
384.000	274.374	80.007	19.993	103.915	20.031	-1.278	0.493
384.500	274.638	80.006	19.993	103.916	20.032	-1.403	0.497
385.000	274.891	80.007	19.993	103.917	20.030	-1.263	0.510
385.500	275.149	80.007	19.994	103.913	20.030	-1.230	0.515
386.000	275.393	80.006	19.993	103.912	20.030	-1.206	0.506
386.500	275.683	80.005	19.993	103.912	20.030	-1.250	0.517
387.000	275.887	80.006	19.994	103.912	20.030	-1.259	0.514
387.500	276.154	80.006	19.994	103.914	20.030	-1.234	0.483
388.000	276.408	80.006	19.993	103.915	20.028	-1.129	0.496
388.500	276.648	80.007	19.993	103.920	20.031	-1.309	0.507
389.000	276.909	80.007	19.995	103.921	20.034	-1.495	0.497
389.500	277.176	80.008	19.995	103.920	20.033	-1.408	0.515
390.000	277.393	80.008	19.994	103.919	20.031	-1.294	0.506
390.500	277.649	80.006	19.993	103.916	20.035	-1.555	0.478
391.000	277.904	80.007	19.992	103.912	20.032	-1.382	0.492
391.500	278.168	80.007	19.993	103.912	20.035	-1.561	0.515
392.000	278.417	80.007	19.993	103.912	20.031	-1.283	0.516
392.500	278.674	80.006	19.993	103.912	20.028	-1.090	0.509
393.000	278.963	80.008	19.994	103.912	20.031	-1.307	0.526
393.500	279.202	80.008	19.992	103.911	20.030	-1.232	0.537
394.000	279.444	80.007	19.994	103.910	20.032	-1.371	0.504
394.500	279.706	80.007	19.994	103.910	20.031	-1.324	0.492
395.000	279.973	80.009	19.995	103.909	20.034	-1.518	0.517
395.500	280.184	80.008	19.993	103.910	20.033	-1.447	0.504
396.000	280.461	80.007	19.994	103.910	20.030	-1.257	0.483
396.500	280.701	80.008	19.993	103.909	20.030	-1.233	0.502
397.000	280.983	80.008	19.994	103.909	20.033	-1.434	0.519
397.500	281.190	80.008	19.994	103.909	20.031	-1.325	0.506
398.000	281.462	80.008	19.994	103.907	20.032	-1.390	0.484
398.500	281.706	80.007	19.993	103.909	20.030	-1.228	0.498
399.000	281.976	80.009	19.994	103.910	20.034	-1.485	0.515
399.500	282.209	80.008	19.993	103.910	20.033	-1.460	0.508
400.000	282.446	80.008	19.993	103.909	20.034	-1.504	0.486
400.500	282.709	80.009	19.993	103.905	20.033	-1.441	0.485
401.000	282.964	80.008	19.994	103.898	20.031	-1.318	0.509
401.500	283.204	80.007	19.993	103.893	20.034	-1.494	0.506
402.000	283.480	80.008	19.994	103.893	20.034	-1.482	0.506
402.500	283.711	80.007	19.995	103.894	20.033	-1.445	0.511
403.000	284.003	80.009	19.994	103.897	20.035	-1.557	0.515
403.500	284.241	80.005	19.993	103.902	20.034	-1.500	0.527
404.000	284.499	80.007	19.997	103.906	20.032	-1.386	0.513
404.500	284.729	80.007	19.997	103.906	20.035	-1.575	0.492
405.000	284.980	80.006	19.996	103.907	20.034	-1.531	0.484
405.500	285.240	80.007	19.995	103.906	20.034	-1.496	0.496
406.000	285.472	80.007	19.994	103.907	20.036	-1.627	0.502
406.500	285.743	80.006	19.995	103.906	20.035	-1.540	0.498
407.000	285.990	80.006	19.995	103.906	20.035	-1.568	0.511
407.500	286.214	80.006	19.995	103.905	20.033	-1.454	0.494
408.000	286.485	80.007	19.995	103.905	20.031	-1.303	0.483
408.500	286.712	80.008	19.995	103.905	20.032	-1.362	0.496
409.000	287.003	80.008	19.993	103.905	20.033	-1.425	0.508
409.500	287.254	80.008	19.994	103.906	20.032	-1.370	0.530
410.000	287.518	80.006	19.995	103.906	20.034	-1.535	0.529
410.500	287.777	80.006	19.995	103.903	20.034	-1.500	0.519
411.000	288.032	80.007	19.994	103.902	20.037	-1.721	0.518
411.500	288.248	80.007	19.995	103.901	20.035	-1.544	0.492
412.000	288.498	80.008	19.994	103.900	20.035	-1.596	0.469
412.500	288.721	80.008	19.996	103.898	20.036	-1.609	0.470
413.000	288.972	80.006	19.994	103.900	20.038	-1.787	0.474
413.500	289.246	80.008	19.994	103.901	20.036	-1.649	0.499
414.000	289.500	80.008	19.994	103.902	20.035	-1.570	0.526
414.500	289.761	80.007	19.995	103.903	20.030	-1.257	0.522
415.000	290.025	80.006	19.995	103.906	20.033	-1.406	0.520
415.500	290.260	80.008	19.995	103.907	20.034	-1.522	0.512
416.000	290.511	80.008	19.995	103.907	20.033	-1.447	0.492
416.500	290.751	80.008	19.994	103.907	20.033	-1.419	0.489
417.000	291.019	80.008	19.994	103.907	20.030	-1.217	0.499
417.500	291.259	80.009	19.994	103.907	20.031	-1.313	0.508
418.000	291.533	80.007	19.995	103.906	20.033	-1.412	0.511
418.500	291.772	80.007	19.995	103.905	20.034	-1.487	0.513
419.000	292.025	80.008	19.994	103.904	20.032	-1.366	0.502
419.500	292.294	80.009	19.993	103.904	20.033	-1.463	0.507
420.000	292.541	80.008	19.995	103.905	20.036	-1.640	0.519
420.500	292.759	80.008	19.995	103.906	20.031	-1.316	0.491
421.000	293.045	80.008	19.993	103.907	20.036	-1.616	0.484
421.500	293.271	80.008	19.994	103.907	20.035	-1.601	0.507
422.000	293.538	80.009	19.993	103.908	20.035	-1.585	0.503
422.500	293.773	80.010	19.995	103.908	20.034	-1.489	0.498
423.000	293.994	80.008	19.994	103.908	20.037	-1.697	0.479
423.500	294.288	80.009	19.993	103.908	20.035	-1.594	0.486
424.000	294.511	80.008	19.993	103.908	20.034	-1.535	0.516
424.500	294.777	80.008	19.994	103.908	20.032	-1.378	0.503
425.000	295.019	80.010	19.994	103.908	20.035	-1.601	0.499
425.500	295.278	80.009	19.994	103.908	20.034	-1.522	0.504
426.000	295.513	80.010	19.994	103.907	20.034	-1.472	0.497
426.500	295.750	80.008	19.993	103.907	20.035	-1.542	0.483
427.000	296.001	80.008	19.994	103.907	20.034	-1.494	0.480
427.500	296.231	80.008	19.994	103.907	20.039	-1.810	0.485
428.000	296.487	80.008	19.995	103.908	20.035	-1.564	0.484
428.500	296.746	80.009	19.994	103.911	20.035	-1.559	0.501
429.000	297.016	80.009	19.994	103.911	20.039	-1.858	0.522
429.500	297.259	80.010	19.994	103.912	20.039	-1.827	0.520
430.000	297.485	80.008	19.995	103.912	20.037	-1.706	0.491
430.500	297.710	80.008	19.995	103.911	20.037	-1.715	0.460
431.000	298.012	80.009	19.994	103.909	20.036	-1.656	0.489
431.500	298.210	80.007	19.994	103.909	20.037	-1.676	0.514
432.000	298.496	80.008	19.995	103.910	20.041	-1.974	0.492
432.500	298.725	80.007	19.995	103.909	20.037	-1.739	0.499
433.000	298.962	80.007	19.994	103.908	20.038	-1.792	0.491
433.500	299.275	80.008	19.994	103.901	20.037	-1.697	0.509
434.000	299.518	80.007	19.994	103.894	20.039	-1.807	0.553
434.500	299.747	80.007	19.994	103.889	20.039	-1.823	0.514
435.000	300.000	80.009	19.994	103.883	20.039	-1.851	0.477
435.500	300.235	80.006	19.995	103.877	20.042	-2.057	0.484
436.000	300.447	80.007	19.996	103.876	20.041	-1.994	0.467
436.500	300.723	80.006	19.996	103.876	20.039	-1.838	0.468
437.000	300.968	80.008	19.995	103.876	20.040	-1.901	0.505
437.500	301.212	80.007	19.995	103.878	20.040	-1.879	0.505
438.000	301.458	80.006	19.996	103.880	20.041	-2.002	0.489
438.500	301.706	80.006	19.994	103.887	20.039	-1.807	0.492
439.000	301.970	80.007	19.995	103.894	20.040	-1.934	0.504
439.500	302.225	80.006	19.995	103.897	20.038	-1.792	0.516
440.000	302.429	80.007	19.995	103.900	20.040	-1.923	0.489
440.500	302.710	80.007	19.995	103.900	20.042	-2.018	0.472
441.000	302.952	80.008	19.995	103.896	20.040	-1.876	0.504
441.500	303.218	80.008	19.995	103.896	20.040	-1.900	0.516
442.000	303.470	80.009	19.994	103.897	20.041	-1.965	0.513
442.500	303.693	80.009	19.994	103.893	20.040	-1.877	0.496
443.000	303.948	80.007	19.994	103.899	20.040	-1.888	0.477
443.500	304.216	80.008	19.995	103.903	20.042	-2.055	0.500
444.000	304.463	80.008	19.994	103.900	20.043	-2.116	0.519
444.500	304.697	80.008	19.994	103.896	20.042	-2.013	0.498
445.000	304.976	80.009	19.994	103.897	20.038	-1.805	0.497
445.500	305.228	80.008	19.994	103.894	20.042	-2.033	0.522
446.000	305.448	80.008	19.994	103.891	20.043	-2.075	0.502
446.500	305.720	80.008	19.993	103.895	20.043	-2.132	0.483
447.000	305.961	80.009	19.994	103.900	20.042	-2.011	0.502
447.500	306.201	80.009	19.993	103.900	20.043	-2.114	0.497
448.000	306.462	80.009	19.993	103.903	20.043	-2.099	0.491
448.500	306.742	80.009	19.993	103.904	20.043	-2.117	0.521
449.000	306.967	80.010	19.993	103.904	20.044	-2.158	0.523
449.500	307.228	80.009	19.994	103.904	20.043	-2.130	0.496
450.000	307.504	80.009	19.993	103.905	20.042	-2.018	0.512
450.500	307.737	80.010	19.993	103.898	20.045	-2.215	0.523
451.000	307.961	80.010	19.993	103.894	20.043	-2.132	0.483
451.500	308.248	80.009	19.993	103.889	20.040	-1.917	0.484
452.000	308.501	80.009	19.993	103.885	20.045	-2.215	0.525
452.500	308.762	80.008	19.993	103.887	20.039	-1.867	0.527
453.000	308.962	80.009	19.993	103.892	20.044	-2.180	0.487
453.500	309.230	80.011	19.993	103.896	20.042	-2.040	0.464
454.000	309.473	80.010	19.994	103.901	20.042	-2.057	0.490
454.500	309.742	80.009	19.993	103.905	20.043	-2.094	0.512
455.000	309.979	80.010	19.993	103.905	20.045	-2.226	0.509
455.500	310.220	80.009	19.994	103.906	20.042	-2.020	0.492
456.000	310.422	80.009	19.993	103.907	20.041	-1.991	0.461
456.500	310.720	80.009	19.994	103.906	20.043	-2.114	0.471
457.000	311.012	80.009	19.993	103.904	20.041	-1.956	0.545
457.500	311.252	80.009	19.993	103.903	20.041	-1.965	0.561
458.000	311.488	80.009	19.993	103.898	20.044	-2.141	0.504
458.500	311.717	80.010	19.994	103.894	20.041	-1.998	0.471
459.000	311.974	80.009	19.993	103.893	20.040	-1.936	0.476
459.500	312.262	80.007	19.994	103.895	20.041	-2.000	0.515
460.000	312.475	80.007	19.994	103.897	20.042	-2.062	0.523
460.500	312.745	80.008	19.993	103.901	20.044	-2.153	0.492
461.000	313.019	80.006	19.993	103.904	20.042	-2.048	0.514
461.500	313.258	80.007	19.994	103.900	20.044	-2.143	0.529
462.000	313.527	80.006	19.994	103.897	20.041	-1.982	0.510
462.500	313.769	80.007	19.994	103.897	20.041	-1.956	0.510
463.000	314.041	80.008	19.993	103.893	20.043	-2.112	0.513
463.500	314.259	80.006	19.993	103.890	20.041	-2.002	0.502
464.000	314.493	80.007	19.996	103.892	20.043	-2.090	0.471
464.500	314.764	80.006	19.995	103.894	20.041	-1.996	0.478
465.000	315.020	80.006	19.994	103.894	20.044	-2.145	0.516
465.500	315.245	80.008	19.994	103.897	20.044	-2.152	0.504
466.000	315.507	80.007	19.993	103.901	20.043	-2.101	0.484
466.500	315.750	80.006	19.994	103.901	20.043	-2.091	0.496
467.000	316.004	80.007	19.994	103.898	20.046	-2.308	0.501
467.500	316.261	80.007	19.994	103.898	20.046	-2.310	0.504
468.000	316.521	80.007	19.994	103.899	20.045	-2.229	0.514
468.500	316.759	80.007	19.993	103.899	20.045	-2.240	0.507
469.000	316.979	80.008	19.994	103.900	20.047	-2.360	0.478
469.500	317.253	80.007	19.994	103.904	20.046	-2.309	0.476
470.000	317.497	80.007	19.994	103.904	20.047	-2.366	0.506
470.500	317.758	80.007	19.994	103.900	20.048	-2.412	0.512
471.000	318.033	80.005	19.994	103.901	20.047	-2.353	0.520
471.500	318.247	80.006	19.995	103.902	20.049	-2.483	0.512
472.000	318.488	80.007	19.994	103.901	20.043	-2.117	0.472
472.500	318.771	80.008	19.995	103.903	20.044	-2.205	0.490
473.000	318.995	80.008	19.996	103.907	20.042	-2.064	0.515
473.500	319.227	80.007	19.995	103.907	20.049	-2.488	0.481
474.000	319.472	80.007	19.993	103.906	20.050	-2.580	0.466
474.500	319.719	80.008	19.993	103.905	20.045	-2.250	0.485
475.000	319.980	80.007	19.993	103.902	20.045	-2.270	0.500
475.500	320.234	80.008	19.994	103.898	20.042	-2.062	0.511
476.000	320.508	80.007	19.995	103.891	20.045	-2.272	0.521
476.500	320.734	80.008	19.995	103.884	20.045	-2.264	0.515
477.000	320.976	80.008	19.994	103.880	20.045	-2.228	0.484
477.500	321.231	80.008	19.993	103.879	20.046	-2.318	0.482
478.000	321.488	80.006	19.994	103.878	20.046	-2.308	0.504
478.500	321.724	80.008	19.994	103.880	20.045	-2.220	0.503
479.000	322.008	80.007	19.994	103.885	20.044	-2.143	0.507
479.500	322.251	80.007	19.994	103.886	20.045	-2.274	0.523
480.000	322.464	80.008	19.993	103.890	20.045	-2.230	0.491
480.500	322.715	80.008	19.995	103.893	20.049	-2.491	0.460
481.000	322.978	80.008	19.993	103.895	20.044	-2.180	0.489
481.500	323.222	80.008	19.994	103.896	20.046	-2.320	0.510
482.000	323.497	80.008	19.993	103.895	20.046	-2.298	0.513
482.500	323.742	80.007	19.993	103.891	20.047	-2.408	0.520
483.000	323.986	80.008	19.993	103.884	20.047	-2.362	0.505
483.500	324.221	80.008	19.994	103.880	20.045	-2.233	0.484
484.000	324.469	80.008	19.993	103.880	20.046	-2.309	0.481
484.500	324.694	80.008	19.994	103.883	20.047	-2.353	0.478
485.000	324.969	80.007	19.994	103.881	20.051	-2.670	0.486
485.500	325.170	80.008	19.994	103.885	20.047	-2.356	0.488
486.000	325.477	80.008	19.994	103.891	20.051	-2.658	0.492
486.500	325.687	80.008	19.994	103.891	20.048	-2.454	0.513
487.000	325.963	80.007	19.995	103.890	20.050	-2.603	0.501
487.500	326.236	80.008	19.994	103.891	20.049	-2.507	0.517
488.000	326.467	80.008	19.993	103.888	20.049	-2.494	0.527
488.500	326.695	80.009	19.993	103.882	20.049	-2.487	0.481
489.000	326.938	80.007	19.994	103.883	20.049	-2.533	0.465
489.500	327.194	80.006	19.993	103.886	20.046	-2.296	0.485
490.000	327.428	80.006	19.993	103.892	20.050	-2.597	0.495
490.500	327.689	80.007	19.994	103.895	20.048	-2.454	0.492
491.000	327.944	80.007	19.994	103.899	20.049	-2.535	0.506
491.500	328.183	80.006	19.993	103.901	20.049	-2.535	0.505
492.000	328.424	80.008	19.994	103.903	20.048	-2.456	0.487
492.500	328.699	80.007	19.994	103.904	20.048	-2.452	0.498
493.000	328.961	80.006	19.994	103.907	20.051	-2.667	0.527
493.500	329.197	80.007	19.993	103.910	20.049	-2.505	0.518
494.000	329.463	80.005	19.993	103.906	20.050	-2.582	0.499
494.500	329.699	80.007	19.994	103.899	20.051	-2.630	0.502
495.000	329.983	80.007	19.994	103.894	20.047	-2.378	0.511
495.500	330.223	80.006	19.994	103.887	20.047	-2.397	0.522
496.000	330.477	80.006	19.994	103.879	20.048	-2.454	0.509
496.500	330.709	80.008	19.994	103.879	20.051	-2.618	0.490
497.000	330.982	80.006	19.994	103.882	20.051	-2.638	0.496
497.500	331.198	80.006	19.994	103.885	20.051	-2.617	0.497
498.000	331.508	80.006	19.994	103.888	20.049	-2.507	0.507
498.500	331.758	80.007	19.994	103.890	20.051	-2.630	0.543
499.000	332.009	80.007	19.994	103.888	20.048	-2.476	0.530
499.500	332.298	80.007	19.994	103.884	20.049	-2.481	0.520
500.000	332.546	80.007	19.994	103.884	20.049	-2.485	0.539
500.500	332.774	80.007	19.993	103.888	20.050	-2.568	0.507
501.000	333.062	80.006	19.995	103.894	20.052	-2.719	0.496
501.500	333.343	80.007	19.994	103.901	20.052	-2.691	0.543
502.000	333.574	80.008	19.994	103.907	20.050	-2.570	0.541
502.500	333.841	80.009	19.994	103.909	20.053	-2.755	0.505
503.000	334.102	80.008	19.994	103.908	20.051	-2.636	0.513
503.500	334.355	80.009	19.994	103.905	20.051	-2.649	0.521
504.000	334.612	80.008	19.994	103.903	20.052	-2.735	0.512
504.500	334.853	80.008	19.995	103.896	20.051	-2.623	0.504
505.000	335.128	80.009	19.995	103.892	20.052	-2.731	0.507
505.500	335.360	80.009	19.994	103.893	20.053	-2.765	0.511
506.000	335.607	80.010	19.994	103.896	20.051	-2.643	0.493
506.500	335.888	80.007	19.995	103.895	20.050	-2.551	0.504
507.000	336.146	80.008	19.995	103.899	20.048	-2.461	0.534
507.500	336.407	80.008	19.995	103.902	20.053	-2.788	0.529
508.000	336.637	80.008	19.995	103.901	20.052	-2.729	0.505
508.500	336.923	80.009	19.993	103.897	20.051	-2.643	0.503
509.000	337.159	80.008	19.994	103.898	20.050	-2.597	0.519
509.500	337.410	80.008	19.994	103.899	20.052	-2.707	0.505
510.000	337.671	80.009	19.994	103.899	20.051	-2.654	0.499
510.500	337.930	80.008	19.994	103.898	20.053	-2.801	0.516
511.000	338.241	80.007	19.995	103.899	20.049	-2.500	0.545
511.500	338.487	80.008	19.994	103.899	20.052	-2.713	0.564
512.000	338.713	80.008	19.994	103.898	20.050	-2.570	0.514
512.500	338.985	80.008	19.994	103.896	20.049	-2.489	0.484
513.000	339.240	80.007	19.993	103.897	20.051	-2.667	0.513
513.500	339.499	80.007	19.994	103.898	20.051	-2.625	0.521
514.000	339.744	80.009	19.994	103.896	20.050	-2.553	0.509
514.500	340.033	80.007	19.993	103.897	20.052	-2.696	0.519
515.000	340.239	80.008	19.993	103.899	20.053	-2.744	0.514
515.500	340.524	80.006	19.994	103.899	20.049	-2.500	0.493
516.000	340.793	80.008	19.994	103.898	20.049	-2.527	0.523
516.500	341.030	80.007	19.993	103.900	20.052	-2.693	0.530
517.000	341.306	80.007	19.994	103.896	20.051	-2.667	0.509
517.500	341.577	80.008	19.994	103.892	20.051	-2.629	0.530
518.000	341.817	80.006	19.993	103.892	20.051	-2.654	0.529
518.500	342.104	80.009	19.993	103.894	20.051	-2.673	0.519
519.000	342.359	80.007	19.994	103.892	20.054	-2.824	0.534
519.500	342.619	80.009	19.993	103.894	20.051	-2.640	0.528
520.000	342.814	80.009	19.994	103.895	20.052	-2.726	0.485
520.500	343.100	80.009	19.994	103.894	20.052	-2.686	0.468
521.000	343.381	80.007	19.993	103.894	20.051	-2.656	0.524
521.500	343.639	80.009	19.995	103.892	20.052	-2.704	0.553
522.000	343.873	80.007	19.994	103.895	20.054	-2.871	0.515
522.500	344.127	80.007	19.995	103.898	20.054	-2.825	0.490
523.000	344.367	80.008	19.995	103.900	20.051	-2.634	0.491
523.500	344.617	80.006	19.994	103.902	20.055	-2.944	0.492
524.000	344.865	80.007	19.997	103.905	20.054	-2.814	0.494
524.500	345.149	80.006	19.997	103.905	20.054	-2.871	0.515
525.000	345.387	80.008	19.996	103.901	20.053	-2.803	0.527
525.500	345.634	80.007	19.995	103.894	20.055	-2.897	0.504
526.000	345.910	80.008	19.996	103.890	20.057	-3.073	0.504
526.500	346.197	80.009	19.995	103.888	20.056	-2.953	0.543
527.000	346.442	80.008	19.995	103.888	20.054	-2.854	0.548
527.500	346.697	80.009	19.995	103.891	20.054	-2.821	0.516
528.000	346.923	80.008	19.995	103.898	20.054	-2.839	0.490
528.500	347.202	80.009	19.994	103.902	20.053	-2.806	0.493
529.000	347.463	80.008	19.995	103.905	20.057	-3.025	0.523
529.500	347.733	80.009	19.994	103.906	20.055	-2.887	0.536
530.000	347.992	80.009	19.995	103.906	20.055	-2.939	0.529
530.500	348.244	80.009	19.994	103.906	20.055	-2.905	0.520
531.000	348.506	80.009	19.994	103.903	20.054	-2.847	0.513
531.500	348.768	80.010	19.995	103.900	20.060	-3.236	0.520
532.000	349.007	80.010	19.994	103.900	20.057	-3.027	0.513
532.500	349.311	80.008	19.994	103.898	20.057	-3.077	0.522
533.000	349.581	80.009	19.994	103.893	20.057	-3.040	0.558
533.500	349.793	80.009	19.994	103.889	20.055	-2.924	0.528
534.000	350.096	80.009	19.993	103.886	20.056	-3.003	0.499
534.500	350.345	80.009	19.995	103.885	20.061	-3.282	0.533
535.000	350.591	80.009	19.994	103.886	20.059	-3.159	0.524
535.500	350.812	80.009	19.994	103.889	20.057	-3.043	0.481
536.000	351.106	80.008	19.995	103.890	20.059	-3.209	0.491
536.500	351.341	80.008	19.994	103.891	20.060	-3.267	0.522
537.000	351.601	80.008	19.994	103.885	20.060	-3.242	0.512
537.500	351.876	80.008	19.994	103.878	20.058	-3.117	0.515
538.000	352.149	80.009	19.995	103.872	20.061	-3.300	0.541
538.500	352.416	80.008	19.995	103.872	20.059	-3.153	0.544
539.000	352.657	80.009	19.995	103.871	20.059	-3.161	0.524
539.500	352.921	80.008	19.995	103.872	20.056	-3.005	0.506
540.000	353.169	80.007	19.994	103.874	20.058	-3.137	0.508
540.500	353.443	80.008	19.993	103.877	20.060	-3.216	0.517
541.000	353.686	80.008	19.995	103.876	20.060	-3.240	0.519
541.500	353.970	80.007	19.993	103.877	20.059	-3.152	0.522
542.000	354.228	80.008	19.994	103.880	20.055	-2.913	0.535
542.500	354.460	80.007	19.994	103.881	20.061	-3.299	0.516
543.000	354.724	80.007	19.995	103.881	20.057	-3.067	0.493
543.500	354.964	80.007	19.994	103.886	20.059	-3.198	0.500
544.000	355.214	80.007	19.994	103.886	20.055	-2.933	0.497
544.500	355.463	80.008	19.994	103.884	20.060	-3.270	0.494
545.000	355.744	80.006	19.995	103.884	20.061	-3.304	0.515
545.500	355.976	80.008	19.995	103.881	20.060	-3.231	0.522
546.000	356.240	80.006	19.994	103.876	20.061	-3.288	0.504
546.500	356.519	80.007	19.994	103.875	20.059	-3.176	0.519
547.000	356.761	80.008	19.993	103.875	20.057	-3.016	0.532
547.500	357.005	80.006	19.995	103.873	20.056	-3.008	0.504
548.000	357.230	80.007	19.994	103.873	20.056	-3.001	0.477
548.500	357.514	80.007	19.994	103.873	20.056	-2.966	0.489
549.000	357.746	80.007	19.994	103.873	20.059	-3.179	0.512
549.500	358.063	80.007	19.994	103.873	20.057	-3.076	0.533
550.000	358.299	80.007	19.994	103.873	20.057	-3.043	0.551
550.500	358.573	80.006	19.994	103.873	20.057	-3.067	0.531
551.000	358.824	80.007	19.994	103.874	20.056	-2.988	0.518
551.500	359.086	80.006	19.994	103.872	20.057	-3.052	0.519
552.000	359.323	80.008	19.993	103.872	20.060	-3.222	0.506
552.500	359.594	80.007	19.994	103.871	20.059	-3.205	0.503
553.000	359.822	80.007	19.994	103.873	20.058	-3.135	0.503
553.500	360.068	80.007	19.994	103.879	20.057	-3.036	0.486
554.000	360.335	80.006	19.994	103.884	20.059	-3.174	0.493
554.500	360.578	80.006	19.994	103.885	20.059	-3.178	0.512
555.000	360.856	80.007	19.994	103.886	20.059	-3.154	0.516
555.500	361.113	80.007	19.993	103.889	20.058	-3.130	0.527
556.000	361.370	80.006	19.993	103.884	20.059	-3.157	0.524
556.500	361.639	80.007	19.992	103.881	20.057	-3.067	0.520
557.000	361.914	80.007	19.994	103.881	20.061	-3.308	0.535
557.500	362.136	80.007	19.994	103.880	20.061	-3.326	0.521
558.000	362.416	80.008	19.994	103.876	20.059	-3.168	0.500
558.500	362.664	80.007	19.992	103.874	20.061	-3.332	0.515
559.000	362.931	80.007	19.994	103.873	20.062	-3.402	0.522
559.500	363.144	80.007	19.993	103.873	20.059	-3.185	0.497
560.000	363.426	80.006	19.993	103.873	20.060	-3.220	0.487
560.500	363.663	80.007	19.994	103.876	20.059	-3.154	0.507
561.000	363.908	80.008	19.993	103.880	20.060	-3.236	0.501
561.500	364.132	80.007	19.995	103.879	20.060	-3.275	0.476
562.000	364.409	80.008	19.994	103.878	20.060	-3.255	0.485
562.500	364.658	80.007	19.993	103.877	20.060	-3.261	0.513
563.000	364.913	80.007	19.994	103.875	20.062	-3.362	0.515
563.500	365.199	80.007	19.993	103.874	20.062	-3.364	0.523
564.000	365.427	80.005	19.994	103.875	20.062	-3.406	0.527
564.500	365.686	80.009	19.993	103.878	20.063	-3.440	0.500
565.000	365.937	80.008	19.995	103.878	20.064	-3.481	0.499
565.500	366.207	80.007	19.993	103.881	20.065	-3.573	0.516
566.000	366.484	80.008	19.993	103.880	20.061	-3.291	0.534
566.500	366.691	80.007	19.994	103.880	20.061	-3.332	0.516
567.000	366.939	80.007	19.994	103.878	20.063	-3.426	0.470
567.500	367.158	80.006	19.994	103.878	20.060	-3.227	0.461
568.000	367.448	80.008	19.994	103.878	20.060	-3.229	0.488
568.500	367.702	80.006	19.993	103.879	20.060	-3.262	0.526
569.000	367.964	80.006	19.994	103.881	20.058	-3.106	0.530
569.500	368.210	80.006	19.994	103.882	20.063	-3.475	0.512
570.000	368.429	80.006	19.994	103.885	20.061	-3.332	0.486
570.500	368.710	80.007	19.994	103.882	20.060	-3.255	0.482
571.000	369.039	80.006	19.993	103.879	20.064	-3.505	0.555
571.500	369.247	80.006	19.994	103.876	20.061	-3.343	0.573
572.000	369.488	80.007	19.994	103.875	20.063	-3.418	0.493
572.500	369.725	80.007	19.994	103.878	20.063	-3.426	0.464
573.000	369.978	80.007	19.994	103.886	20.061	-3.297	0.484
573.500	370.246	80.006	19.994	103.890	20.062	-3.376	0.505
574.000	370.465	80.006	19.993	103.892	20.061	-3.332	0.504
574.500	370.729	80.006	19.994	103.893	20.063	-3.468	0.485
575.000	370.999	80.004	19.994	103.889	20.065	-3.593	0.509
575.500	371.217	80.006	19.994	103.882	20.064	-3.514	0.511
576.000	371.486	80.006	19.994	103.878	20.060	-3.212	0.488
576.500	371.732	80.006	19.994	103.877	20.062	-3.379	0.501
577.000	371.985	80.006	19.994	103.876	20.064	-3.495	0.507
577.500	372.246	80.005	19.994	103.876	20.063	-3.440	0.506
578.000	372.535	80.007	19.993	103.875	20.062	-3.356	0.532
578.500	372.800	80.007	19.995	103.875	20.063	-3.460	0.552
579.000	373.050	80.006	19.993	103.876	20.062	-3.390	0.535
579.500	373.299	80.007	19.993	103.880	20.061	-3.322	0.507
580.000	373.559	80.007	19.994	103.881	20.059	-3.194	0.504
580.500	373.795	80.007	19.995	103.881	20.061	-3.282	0.503
581.000	374.052	80.007	19.994	103.881	20.063	-3.416	0.495
581.500	374.297	80.006	19.994	103.882	20.058	-3.144	0.497
582.000	374.536	80.007	19.995	103.877	20.062	-3.372	0.493
582.500	374.792	80.007	19.993	103.877	20.058	-3.128	0.490
583.000	375.052	80.006	19.993	103.876	20.060	-3.234	0.506
583.500	375.302	80.006	19.992	103.875	20.062	-3.394	0.513
584.000	375.564	80.008	19.994	103.874	20.060	-3.269	0.511
584.500	375.799	80.008	19.995	103.874	20.062	-3.400	0.504
585.000	376.064	80.007	19.994	103.875	20.063	-3.425	0.499
585.500	376.336	80.008	19.994	103.876	20.060	-3.238	0.519
586.000	376.565	80.009	19.994	103.876	20.060	-3.271	0.519
586.500	376.833	80.007	19.995	103.874	20.063	-3.451	0.499
587.000	377.085	80.008	19.995	103.874	20.060	-3.227	0.508
587.500	377.368	80.008	19.996	103.872	20.063	-3.424	0.528
588.000	377.601	80.009	19.994	103.870	20.061	-3.295	0.526
588.500	377.836	80.009	19.995	103.871	20.060	-3.278	0.492
589.000	378.129	80.008	19.995	103.872	20.059	-3.185	0.498
589.500	378.381	80.007	19.994	103.873	20.062	-3.390	0.536
590.000	378.599	80.008	19.994	103.871	20.063	-3.468	0.507
590.500	378.843	80.008	19.995	103.872	20.066	-3.648	0.466
591.000	379.124	80.008	19.994	103.870	20.065	-3.589	0.493
591.500	379.346	80.008	19.994	103.870	20.063	-3.451	0.514
592.000	379.622	80.010	19.994	103.868	20.061	-3.297	0.501
592.500	379.846	80.010	19.994	103.868	20.064	-3.523	0.500
593.000	380.131	80.008	19.995	103.868	20.061	-3.302	0.504
593.500	380.389	80.008	19.994	103.868	20.063	-3.457	0.526
594.000	380.650	80.008	19.994	103.868	20.064	-3.519	0.531
594.500	380.912	80.008	19.995	103.869	20.065	-3.594	0.521
595.000	381.140	80.008	19.994	103.871	20.061	-3.300	0.507
595.500	381.402	80.007	19.995	103.871	20.061	-3.343	0.490
596.000	381.622	80.007	19.996	103.872	20.063	-3.464	0.486
596.500	381.895	80.008	19.995	103.872	20.061	-3.330	0.487
597.000	382.160	80.009	19.994	103.871	20.060	-3.254	0.516
597.500	382.372	80.007	19.995	103.870	20.066	-3.648	0.507
598.000	382.659	80.008	19.994	103.875	20.062	-3.385	0.488
598.500	382.868	80.007	19.995	103.875	20.063	-3.445	0.497
599.000	383.141	80.007	19.995	103.875	20.066	-3.649	0.489
599.500	383.363	80.007	19.993	103.874	20.066	-3.614	0.489
600.000	383.627	80.007	19.994	103.872	20.063	-3.478	0.491
600.500	383.877	80.007	19.995	103.867	20.066	-3.670	0.500
601.000	384.131	80.007	19.995	103.867	20.064	-3.524	0.509
601.500	384.429	80.006	19.996	103.868	20.066	-3.614	0.528
602.000	384.672	80.008	19.994	103.869	20.066	-3.647	0.547
602.500	384.934	80.007	19.994	103.869	20.066	-3.675	0.523
603.000	385.172	80.006	19.993	103.869	20.065	-3.605	0.502
603.500	385.403	80.009	19.995	103.870	20.066	-3.673	0.484
604.000	385.684	80.007	19.995	103.870	20.065	-3.580	0.491
604.500	385.895	80.008	19.994	103.869	20.064	-3.501	0.502
605.000	386.180	80.007	19.994	103.870	20.067	-3.699	0.494
605.500	386.408	80.008	19.995	103.869	20.065	-3.598	0.504
606.000	386.650	80.008	19.995	103.868	20.065	-3.583	0.491
606.500	386.916	80.008	19.995	103.867	20.064	-3.480	0.490
607.000	387.183	80.009	19.994	103.867	20.065	-3.567	0.520
607.500	387.438	80.007	19.993	103.867	20.061	-3.304	0.527
608.000	387.700	80.008	19.994	103.868	20.064	-3.528	0.519
608.500	387.915	80.007	19.994	103.868	20.066	-3.646	0.497
609.000	388.186	80.009	19.993	103.867	20.064	-3.484	0.481
609.500	388.424	80.010	19.994	103.867	20.065	-3.572	0.497
610.000	388.690	80.009	19.993	103.866	20.065	-3.563	0.507
610.500	388.923	80.009	19.993	103.865	20.063	-3.476	0.502
611.000	389.188	80.009	19.994	103.865	20.062	-3.403	0.499
611.500	389.411	80.010	19.995	103.865	20.064	-3.515	0.493
612.000	389.682	80.010	19.994	103.864	20.064	-3.497	0.491
612.500	389.933	80.009	19.994	103.860	20.064	-3.535	0.508
613.000	390.147	80.009	19.994	103.860	20.065	-3.577	0.494
613.500	390.454	80.009	19.994	103.861	20.065	-3.605	0.493
614.000	390.658	80.009	19.994	103.861	20.062	-3.403	0.516
614.500	390.942	80.009	19.994	103.862	20.064	-3.522	0.499
615.000	391.187	80.008	19.995	103.866	20.063	-3.416	0.509
615.500	391.463	80.009	19.994	103.866	20.063	-3.441	0.525
616.000	391.680	80.009	19.995	103.866	20.062	-3.357	0.507
616.500	391.961	80.008	19.994	103.865	20.064	-3.496	0.496
617.000	392.180	80.008	19.994	103.865	20.065	-3.599	0.499
617.500	392.465	80.007	19.994	103.865	20.067	-3.730	0.502
618.000	392.715	80.009	19.993	103.865	20.065	-3.554	0.520
618.500	392.946	80.008	19.995	103.865	20.066	-3.622	0.508
619.000	393.209	80.007	19.994	103.866	20.062	-3.411	0.487
619.500	393.446	80.007	19.993	103.865	20.065	-3.585	0.497
620.000	393.729	80.008	19.995	103.861	20.065	-3.554	0.511
620.500	393.991	80.006	19.995	103.859	20.065	-3.571	0.533
621.000	394.250	80.005	19.994	103.859	20.064	-3.545	0.533
621.500	394.481	80.005	19.994	103.859	20.065	-3.609	0.505
622.000	394.721	80.006	19.994	103.859	20.064	-3.544	0.480
622.500	394.977	80.006	19.994	103.863	20.067	-3.724	0.484
623.000	395.210	80.005	19.995	103.862	20.062	-3.373	0.493
623.500	395.493	80.006	19.995	103.857	20.062	-3.360	0.503
624.000	395.727	80.006	19.995	103.852	20.067	-3.726	0.516
624.500	395.951	80.007	19.996	103.853	20.064	-3.544	0.488
625.000	396.193	80.005	19.995	103.852	20.068	-3.750	0.462
625.500	396.467	80.004	19.995	103.854	20.067	-3.717	0.491
626.000	396.698	80.005	19.995	103.856	20.067	-3.733	0.510
626.500	396.954	80.005	19.996	103.857	20.069	-3.845	0.496
627.000	397.224	80.005	19.994	103.855	20.066	-3.638	0.506
627.500	397.434	80.005	19.995	103.855	20.067	-3.700	0.503
628.000	397.703	80.005	19.995	103.857	20.068	-3.772	0.479
628.500	397.926	80.006	19.995	103.860	20.065	-3.579	0.485
629.000	398.174	80.006	19.994	103.864	20.069	-3.829	0.482
629.500	398.452	80.006	19.994	103.868	20.067	-3.690	0.499
630.000	398.695	80.005	19.994	103.870	20.068	-3.763	0.523
630.500	398.908	80.005	19.994	103.871	20.068	-3.771	0.489
631.000	399.157	80.006	19.993	103.877	20.064	-3.503	0.459
631.500	399.426	80.006	19.994	103.878	20.066	-3.659	0.490
632.000	399.652	80.006	19.994	103.874	20.067	-3.721	0.506
632.500	399.905	80.007	19.995	103.868	20.066	-3.637	0.487
633.000	400.161	80.006	19.994	103.860	20.068	-3.800	0.494
633.500	400.401	80.006	19.995	103.847	20.070	-3.896	0.503
634.000	400.601	80.006	19.996	103.843	20.066	-3.677	0.468
634.500	400.905	80.006	19.994	103.840	20.068	-3.769	0.472
635.000	401.096	80.006	19.993	103.843	20.069	-3.879	0.500
635.500	401.351	80.006	19.993	103.845	20.069	-3.877	0.470
636.000	401.589	80.005	19.994	103.848	20.069	-3.881	0.469
636.500	401.817	80.006	19.993	103.845	20.065	-3.607	0.479
637.000	402.019	80.006	19.994	103.849	20.069	-3.864	0.448
637.500	402.272	80.006	19.994	103.849	20.069	-3.823	0.443
638.000	402.538	80.005	19.994	103.850	20.067	-3.682	0.487
638.500	402.770	80.005	19.993	103.853	20.070	-3.889	0.508
639.000	403.003	80.006	19.993	103.857	20.068	-3.757	0.481
639.500	403.331	80.007	19.993	103.856	20.067	-3.742	0.513
640.000	403.527	80.005	19.994	103.859	20.070	-3.904	0.543
640.500	403.749	80.006	19.993	103.864	20.068	-3.753	0.471
641.000	403.998	80.005	19.995	103.866	20.073	-4.082	0.445
641.500	404.241	80.006	19.993	103.869	20.069	-3.858	0.481
642.000	404.467	80.006	19.994	103.873	20.070	-3.914	0.481
642.500	404.673	80.007	19.993	103.873	20.072	-4.075	0.451
643.000	404.945	80.006	19.994	103.871	20.070	-3.936	0.455
643.500	405.177	80.005	19.993	103.869	20.073	-4.103	0.491
644.000	405.381	80.005	19.996	103.865	20.073	-4.117	0.470
644.500	405.612	80.007	19.995	103.865	20.073	-4.086	0.436
645.000	405.860	80.007	19.995	103.864	20.074	-4.152	0.457
645.500	406.089	80.007	19.994	103.865	20.072	-4.077	0.478
646.000	406.336	80.007	19.994	103.866	20.070	-3.906	0.476
646.500	406.525	80.007	19.994	103.869	20.073	-4.126	0.456
647.000	406.831	80.006	19.994	103.865	20.070	-3.882	0.466
647.500	407.053	80.007	19.993	103.862	20.071	-3.964	0.512
648.000	407.287	80.005	19.994	103.855	20.070	-3.929	0.492
648.500	407.514	80.007	19.995	103.848	20.074	-4.210	0.458
649.000	407.748	80.007	19.994	103.844	20.071	-4.014	0.461
649.500	407.978	80.007	19.995	103.847	20.069	-3.874	0.463
650.000	408.198	80.006	19.994	103.844	20.071	-4.007	0.457
650.500	408.461	80.007	19.993	103.846	20.069	-3.856	0.467
651.000	408.688	80.006	19.994	103.847	20.072	-4.054	0.486
651.500	408.900	80.006	19.995	103.848	20.070	-3.933	0.464
652.000	409.122	80.008	19.995	103.848	20.075	-4.220	0.436
652.500	409.418	80.006	19.994	103.853	20.070	-3.939	0.476
653.000	409.626	80.005	19.994	103.858	20.070	-3.939	0.511
653.500	409.857	80.006	19.994	103.858	20.071	-3.987	0.472
654.000	410.117	80.007	19.994	103.855	20.070	-3.914	0.465
654.500	410.375	80.005	19.995	103.854	20.070	-3.883	0.504
655.000	410.590	80.006	19.993	103.850	20.069	-3.826	0.495
655.500	410.810	80.006	19.994	103.848	20.072	-4.057	0.454
656.000	411.055	80.006	19.994	103.850	20.069	-3.817	0.450
656.500	411.331	80.005	19.994	103.852	20.069	-3.859	0.493
657.000	411.569	80.006	19.995	103.850	20.074	-4.160	0.518
657.500	411.789	80.006	19.994	103.847	20.068	-3.762	0.486
658.000	411.999	80.006	19.994	103.844	20.070	-3.905	0.444
658.500	412.264	80.007	19.994	103.839	20.071	-3.997	0.452
659.000	412.474	80.006	19.995	103.837	20.072	-4.076	0.475
659.500	412.701	80.007	19.995	103.835	20.068	-3.752	0.456
660.000	412.935	80.007	19.993	103.835	20.067	-3.708	0.449
660.500	413.163	80.007	19.993	103.834	20.068	-3.801	0.462
661.000	413.415	80.007	19.995	103.835	20.070	-3.937	0.471
661.500	413.648	80.007	19.993	103.835	20.069	-3.825	0.482
662.000	413.856	80.006	19.993	103.837	20.068	-3.779	0.463
662.500	414.103	80.006	19.995	103.841	20.070	-3.913	0.448
663.000	414.337	80.007	19.995	103.842	20.068	-3.809	0.468
663.500	414.556	80.008	19.994	103.847	20.068	-3.788	0.467
664.000	414.786	80.008	19.994	103.851	20.069	-3.843	0.451
664.500	415.013	80.008	19.994	103.854	20.071	-4.005	0.453
665.000	415.281	80.009	19.994	103.857	20.071	-3.967	0.476
665.500	415.513	80.008	19.995	103.863	20.071	-3.972	0.498
666.000	415.745	80.009	19.994	103.864	20.069	-3.864	0.482
666.500	415.960	80.008	19.994	103.866	20.073	-4.099	0.456
667.000	416.159	80.009	19.995	103.866	20.070	-3.928	0.430
667.500	416.448	80.009	19.995	103.867	20.071	-3.994	0.451
668.000	416.648	80.010	19.994	103.868	20.072	-4.029	0.488
668.500	416.911	80.009	19.995	103.867	20.073	-4.125	0.476
669.000	417.119	80.008	19.994	103.868	20.073	-4.103	0.467
669.500	417.397	80.009	19.995	103.868	20.076	-4.283	0.478
670.000	417.601	80.009	19.994	103.864	20.074	-4.215	0.484
670.500	417.853	80.010	19.994	103.858	20.071	-4.007	0.469
671.000	418.118	80.009	19.994	103.854	20.071	-3.963	0.486
671.500	418.338	80.010	19.994	103.851	20.073	-4.114	0.501
672.000	418.590	80.010	19.994	103.849	20.071	-3.985	0.478
672.500	418.779	80.009	19.994	103.852	20.073	-4.139	0.457
673.000	419.010	80.008	19.993	103.856	20.070	-3.912	0.431
673.500	419.270	80.008	19.994	103.852	20.071	-3.995	0.456
674.000	419.492	80.009	19.994	103.848	20.072	-4.059	0.486
674.500	419.707	80.007	19.995	103.845	20.070	-3.916	0.459
675.000	419.934	80.009	19.995	103.844	20.071	-3.956	0.440
675.500	420.179	80.008	19.995	103.842	20.068	-3.760	0.457
676.000	420.420	80.009	19.994	103.849	20.071	-3.963	0.479
676.500	420.675	80.009	19.995	103.853	20.073	-4.096	0.491
677.000	420.906	80.009	19.994	103.854	20.073	-4.083	0.491
677.500	421.157	80.007	19.995	103.849	20.070	-3.912	0.484
678.000	421.370	80.009	19.994	103.850	20.071	-3.994	0.473
678.500	421.668	80.008	19.994	103.850	20.071	-3.987	0.488
679.000	421.857	80.009	19.994	103.853	20.071	-3.979	0.499
679.500	422.119	80.007	19.995	103.855	20.071	-4.009	0.469
680.000	422.333	80.008	19.995	103.859	20.073	-4.119	0.463
680.500	422.598	80.008	19.995	103.858	20.070	-3.937	0.477
681.000	422.808	80.007	19.995	103.854	20.073	-4.121	0.477
681.500	423.047	80.009	19.994	103.853	20.073	-4.123	0.462
682.000	423.310	80.008	19.994	103.850	20.073	-4.119	0.475
682.500	423.545	80.007	19.995	103.852	20.072	-4.066	0.500
683.000	423.774	80.008	19.995	103.851	20.068	-3.803	0.481
683.500	424.025	80.007	19.994	103.852	20.070	-3.900	0.473
684.000	424.269	80.008	19.994	103.853	20.069	-3.853	0.487
684.500	424.461	80.009	19.995	103.857	20.073	-4.128	0.465
685.000	424.734	80.007	19.994	103.860	20.071	-3.952	0.451
685.500	425.005	80.008	19.995	103.863	20.073	-4.110	0.505
686.000	425.222	80.008	19.994	103.862	20.072	-4.038	0.516
686.500	425.451	80.008	19.994	103.863	20.073	-4.106	0.467
687.000	425.693	80.008	19.996	103.863	20.070	-3.904	0.459
687.500	425.940	80.008	19.995	103.859	20.069	-3.861	0.480
688.000	426.191	80.008	19.994	103.853	20.068	-3.805	0.493
688.500	426.391	80.008	19.994	103.852	20.070	-3.900	0.474
689.000	426.656	80.009	19.995	103.853	20.072	-4.027	0.458
689.500	426.875	80.007	19.995	103.849	20.070	-3.932	0.475
690.000	427.146	80.008	19.995	103.845	20.073	-4.140	0.487
690.500	427.397	80.009	19.994	103.849	20.071	-3.984	0.506
691.000	427.619	80.009	19.994	103.850	20.075	-4.250	0.498
691.500	427.851	80.009	19.993	103.847	20.071	-4.013	0.464
692.000	428.130	80.009	19.994	103.849	20.071	-3.951	0.482
692.500	428.337	80.009	19.994	103.853	20.073	-4.129	0.499
693.000	428.622	80.011	19.994	103.854	20.072	-4.030	0.489
693.500	428.822	80.010	19.994	103.852	20.072	-4.022	0.488
694.000	429.076	80.009	19.994	103.849	20.073	-4.109	0.469
694.500	429.337	80.010	19.996	103.847	20.073	-4.098	0.485
695.000	429.569	80.008	19.994	103.849	20.072	-4.026	0.505
695.500	429.802	80.009	19.994	103.850	20.072	-4.065	0.479
696.000	430.051	80.009	19.993	103.854	20.072	-4.030	0.473
696.500	430.297	80.009	19.995	103.853	20.073	-4.112	0.488
697.000	430.528	80.008	19.994	103.851	20.072	-4.020	0.486
697.500	430.766	80.009	19.995	103.845	20.071	-3.994	0.473
698.000	431.025	80.008	19.993	103.841	20.071	-4.013	0.483
698.500	431.260	80.008	19.994	103.838	20.075	-4.272	0.495
699.000	431.484	80.007	19.994	103.840	20.075	-4.254	0.477
699.500	431.765	80.009	19.995	103.845	20.073	-4.096	0.482
700.000	431.987	80.007	19.995	103.849	20.073	-4.094	0.504
700.500	432.266	80.009	19.993	103.854	20.073	-4.129	0.502
701.000	432.508	80.007	19.994	103.859	20.074	-4.204	0.511
701.500	432.716	80.007	19.994	103.860	20.073	-4.101	0.486
702.000	432.977	80.006	19.994	103.861	20.072	-4.048	0.460
702.500	433.212	80.005	19.993	103.862	20.073	-4.101	0.482
703.000	433.447	80.006	19.993	103.863	20.074	-4.182	0.483
703.500	433.724	80.006	19.992	103.862	20.074	-4.177	0.491
704.000	433.964	80.006	19.996	103.864	20.075	-4.228	0.515
704.500	434.215	80.006	19.995	103.865	20.075	-4.270	0.504
705.000	434.449	80.006	19.995	103.866	20.076	-4.338	0.488
705.500	434.723	80.007	19.996	103.866	20.075	-4.228	0.496
706.000	434.960	80.006	19.994	103.867	20.074	-4.197	0.509
706.500	435.190	80.006	19.995	103.866	20.072	-4.052	0.489
707.000	435.446	80.006	19.995	103.864	20.074	-4.151	0.477
707.500	435.696	80.006	19.995	103.857	20.076	-4.336	0.497
708.000	435.949	80.006	19.994	103.854	20.075	-4.223	0.505
708.500	436.207	80.006	19.994	103.853	20.073	-4.108	0.507
709.000	436.468	80.006	19.993	103.856	20.075	-4.279	0.514
709.500	436.708	80.006	19.994	103.856	20.074	-4.167	0.510
710.000	436.923	80.006	19.995	103.863	20.076	-4.292	0.479
710.500	437.174	80.005	19.995	103.867	20.074	-4.183	0.461
711.000	437.417	80.007	19.995	103.866	20.073	-4.090	0.480
711.500	437.610	80.005	19.995	103.863	20.074	-4.187	0.465
712.000	437.917	80.006	19.994	103.863	20.074	-4.200	0.468
712.500	438.138	80.006	19.995	103.861	20.072	-4.047	0.514
713.000	438.411	80.008	19.995	103.858	20.076	-4.344	0.511
713.500	438.623	80.007	19.996	103.858	20.077	-4.356	0.490
714.000	438.890	80.006	19.995	103.860	20.075	-4.277	0.482
714.500	439.148	80.006	19.995	103.860	20.071	-3.982	0.502
715.000	439.386	80.005	19.994	103.861	20.076	-4.347	0.511
715.500	439.620	80.007	19.997	103.861	20.075	-4.272	0.484
716.000	439.902	80.006	19.994	103.862	20.073	-4.127	0.494
716.500	440.137	80.006	19.996	103.861	20.073	-4.114	0.516
717.000	440.395	80.005	19.994	103.861	20.070	-3.928	0.505
717.500	440.684	80.007	19.995	103.861	20.072	-4.075	0.521
718.000	440.917	80.007	19.995	103.863	20.071	-4.013	0.534
718.500	441.175	80.006	19.995	103.863	20.073	-4.099	0.506
719.000	441.447	80.006	19.995	103.861	20.069	-3.868	0.510
719.500	441.659	80.008	19.995	103.857	20.072	-4.017	0.507
720.000	441.923	80.007	19.995	103.852	20.073	-4.083	0.480
720.500	442.144	80.008	19.995	103.852	20.073	-4.114	0.480
721.000	442.427	80.008	19.994	103.849	20.072	-4.046	0.495
721.500	442.696	80.007	19.994	103.844	20.073	-4.133	0.528
722.000	442.929	80.007	19.995	103.846	20.072	-4.059	0.527
722.500	443.242	80.008	19.995	103.851	20.074	-4.173	0.524
723.000	443.476	80.007	19.994	103.847	20.075	-4.259	0.547
723.500	443.707	80.008	19.995	103.848	20.073	-4.108	0.506
724.000	443.961	80.008	19.995	103.855	20.074	-4.191	0.475
724.500	444.243	80.007	19.995	103.856	20.073	-4.093	0.510
725.000	444.490	80.006	19.995	103.858	20.075	-4.246	0.532
725.500	444.727	80.008	19.995	103.860	20.077	-4.386	0.506
726.000	445.015	80.008	19.993	103.858	20.073	-4.127	0.505
726.500	445.247	80.008	19.993	103.859	20.075	-4.235	0.523
727.000	445.536	80.009	19.995	103.854	20.074	-4.160	0.520
727.500	445.802	80.008	19.994	103.852	20.074	-4.180	0.538
728.000	446.018	80.007	19.994	103.855	20.073	-4.090	0.519
728.500	446.249	80.007	19.993	103.859	20.073	-4.130	0.464
729.000	446.572	80.008	19.995	103.858	20.076	-4.284	0.500
729.500	446.819	80.008	19.994	103.862	20.074	-4.182	0.562
730.000	447.074	80.008	19.994	103.865	20.073	-4.116	0.536
730.500	447.311	80.007	19.993	103.865	20.072	-4.051	0.497
731.000	447.578	80.007	19.995	103.866	20.073	-4.141	0.498
731.500	447.838	80.006	19.994	103.867	20.074	-4.197	0.516
732.000	448.092	80.008	19.994	103.868	20.073	-4.110	0.521
732.500	448.337	80.007	19.995	103.863	20.076	-4.349	0.506
733.000	448.603	80.007	19.994	103.861	20.078	-4.469	0.505
733.500	448.889	80.007	19.995	103.860	20.077	-4.360	0.531
734.000	449.101	80.007	19.993	103.857	20.077	-4.413	0.525
734.500	449.398	80.006	19.995	103.852	20.076	-4.300	0.504
735.000	449.656	80.007	19.995	103.852	20.078	-4.458	0.532
735.500	449.940	80.008	19.994	103.850	20.077	-4.377	0.548
736.000	450.166	80.007	19.995	103.850	20.075	-4.263	0.526
736.500	450.461	80.007	19.995	103.853	20.074	-4.211	0.516
737.000	450.719	80.007	19.994	103.857	20.076	-4.316	0.537
737.500	451.025	80.006	19.993	103.862	20.077	-4.354	0.558
738.000	451.253	80.008	19.994	103.862	20.078	-4.461	0.548
738.500	451.504	80.008	19.994	103.857	20.079	-4.542	0.506
739.000	451.782	80.006	19.994	103.853	20.080	-4.615	0.504
739.500	452.044	80.007	19.993	103.851	20.079	-4.485	0.535
740.000	452.325	80.006	19.994	103.849	20.074	-4.195	0.542
740.500	452.541	80.007	19.994	103.850	20.078	-4.476	0.520
741.000	452.838	80.007	19.993	103.856	20.079	-4.511	0.504
741.500	453.086	80.007	19.995	103.855	20.078	-4.458	0.528
742.000	453.350	80.007	19.993	103.854	20.080	-4.588	0.528
742.500	453.606	80.008	19.994	103.856	20.078	-4.447	0.516
743.000	453.872	80.007	19.994	103.854	20.077	-4.401	0.521
743.500	454.123	80.008	19.994	103.852	20.079	-4.520	0.519
744.000	454.377	80.007	19.994	103.856	20.081	-4.683	0.512
744.500	454.676	80.008	19.993	103.858	20.082	-4.704	0.529
745.000	454.899	80.007	19.993	103.857	20.079	-4.542	0.537
745.500	455.194	80.009	19.994	103.859	20.078	-4.452	0.519
746.000	455.468	80.008	19.994	103.862	20.079	-4.511	0.543
746.500	455.710	80.009	19.994	103.857	20.078	-4.478	0.543
747.000	455.987	80.008	19.994	103.854	20.077	-4.390	0.518
747.500	456.250	80.008	19.994	103.851	20.079	-4.511	0.529
748.000	456.531	80.007	19.994	103.848	20.080	-4.555	0.542
748.500	456.770	80.009	19.993	103.846	20.077	-4.408	0.532
749.000	457.063	80.010	19.994	103.849	20.079	-4.529	0.526
749.500	457.299	80.008	19.995	103.851	20.076	-4.333	0.530
750.000	457.558	80.008	19.993	103.854	20.078	-4.417	0.512
750.500	457.830	80.009	19.994	103.855	20.077	-4.369	0.513
751.000	458.077	80.008	19.994	103.858	20.075	-4.248	0.525
751.500	458.355	80.008	19.994	103.860	20.077	-4.354	0.522
752.000	458.613	80.009	19.992	103.861	20.077	-4.369	0.530
752.500	458.919	80.009	19.993	103.862	20.077	-4.355	0.550
753.000	459.211	80.008	19.994	103.865	20.078	-4.419	0.581
753.500	459.444	80.008	19.993	103.862	20.081	-4.663	0.562
754.000	459.723	80.008	19.993	103.858	20.079	-4.531	0.519
754.500	459.966	80.007	19.993	103.859	20.079	-4.515	0.517
755.000	460.258	80.009	19.994	103.856	20.079	-4.542	0.529
755.500	460.509	80.009	19.994	103.857	20.081	-4.627	0.539
756.000	460.746	80.008	19.994	103.858	20.078	-4.450	0.515
756.500	461.016	80.008	19.993	103.862	20.078	-4.475	0.497
757.000	461.251	80.007	19.996	103.864	20.081	-4.670	0.506
757.500	461.524	80.008	19.995	103.866	20.078	-4.424	0.507
758.000	461.783	80.008	19.993	103.866	20.079	-4.512	0.520
758.500	462.042	80.007	19.994	103.867	20.083	-4.771	0.525
759.000	462.308	80.008	19.993	103.867	20.084	-4.820	0.522
759.500	462.587	80.008	19.992	103.867	20.082	-4.729	0.535
760.000	462.839	80.008	19.995	103.863	20.083	-4.817	0.538
760.500	463.107	80.008	19.993	103.858	20.083	-4.771	0.525
761.000	463.349	80.008	19.994	103.855	20.086	-5.003	0.515
761.500	463.598	80.007	19.994	103.853	20.084	-4.849	0.500
762.000	463.874	80.008	19.994	103.849	20.086	-4.994	0.508
762.500	464.120	80.008	19.994	103.850	20.085	-4.946	0.524
763.000	464.385	80.008	19.993	103.852	20.085	-4.900	0.517
763.500	464.640	80.007	19.993	103.856	20.083	-4.800	0.516
764.000	464.914	80.008	19.995	103.857	20.085	-4.951	0.524
764.500	465.173	80.009	19.993	103.859	20.082	-4.736	0.531
765.000	465.394	80.008	19.994	103.862	20.083	-4.804	0.506
765.500	465.667	80.009	19.994	103.863	20.086	-5.010	0.487
766.000	465.933	80.008	19.995	103.861	20.084	-4.839	0.516
766.500	466.182	80.007	19.994	103.857	20.086	-4.995	0.527
767.000	466.475	80.010	19.994	103.852	20.084	-4.839	0.529
767.500	466.724	80.008	19.992	103.846	20.083	-4.811	0.542
768.000	466.986	80.008	19.994	103.841	20.080	-4.594	0.527
768.500	467.233	80.007	19.993	103.836	20.084	-4.832	0.510
769.000	467.485	80.009	19.993	103.834	20.083	-4.789	0.504
769.500	467.791	80.009	19.993	103.834	20.085	-4.915	0.528
770.000	467.998	80.010	19.994	103.834	20.082	-4.698	0.535
770.500	468.291	80.010	19.992	103.838	20.087	-5.025	0.506
771.000	468.532	80.009	19.992	103.844	20.083	-4.812	0.518
771.500	468.801	80.010	19.993	103.852	20.085	-4.894	0.523
772.000	469.054	80.009	19.993	103.857	20.084	-4.823	0.516
772.500	469.348	80.008	19.993	103.857	20.083	-4.812	0.534
773.000	469.592	80.010	19.993	103.853	20.082	-4.709	0.542
773.500	469.869	80.010	19.993	103.848	20.082	-4.713	0.530
774.000	470.123	80.010	19.993	103.840	20.088	-5.093	0.526
774.500	470.396	80.009	19.994	103.836	20.087	-5.032	0.529
775.000	470.647	80.011	19.993	103.838	20.085	-4.929	0.525
775.500	470.920	80.010	19.994	103.839	20.085	-4.907	0.524
776.000	471.171	80.010	19.993	103.839	20.086	-4.983	0.524
776.500	471.393	80.009	19.995	103.840	20.086	-4.963	0.499
777.000	471.680	80.010	19.994	103.837	20.087	-5.080	0.491
777.500	471.906	80.009	19.993	103.835	20.087	-5.025	0.511
778.000	472.185	80.009	19.995	103.834	20.088	-5.124	0.509
778.500	472.440	80.009	19.993	103.833	20.088	-5.135	0.520
779.000	472.672	80.009	19.994	103.836	20.086	-5.014	0.511
779.500	472.959	80.010	19.994	103.842	20.084	-4.868	0.503
780.000	473.226	80.009	19.994	103.844	20.087	-5.076	0.536
780.500	473.495	80.008	19.993	103.849	20.089	-5.188	0.545
781.000	473.794	80.009	19.994	103.854	20.091	-5.298	0.552
781.500	474.025	80.007	19.994	103.855	20.090	-5.253	0.549
782.000	474.276	80.007	19.995	103.849	20.090	-5.242	0.506
782.500	474.558	80.008	19.994	103.847	20.086	-4.996	0.508
783.000	474.822	80.007	19.994	103.847	20.089	-5.194	0.539
783.500	475.083	80.007	19.995	103.846	20.087	-5.072	0.535
784.000	475.359	80.007	19.994	103.843	20.089	-5.168	0.531
784.500	475.585	80.007	19.995	103.850	20.088	-5.140	0.520
785.000	475.860	80.007	19.995	103.854	20.088	-5.135	0.501
785.500	476.099	80.007	19.994	103.852	20.088	-5.100	0.508
786.000	476.414	80.007	19.994	103.851	20.090	-5.232	0.534
786.500	476.639	80.007	19.995	103.852	20.089	-5.201	0.547
787.000	476.907	80.006	19.995	103.852	20.089	-5.216	0.516
787.500	477.168	80.006	19.994	103.851	20.088	-5.111	0.511
788.000	477.451	80.006	19.994	103.855	20.087	-5.041	0.536
788.500	477.720	80.007	19.994	103.857	20.088	-5.089	0.548
789.000	477.977	80.007	19.994	103.856	20.089	-5.191	0.539
789.500	478.224	80.008	19.994	103.850	20.090	-5.228	0.515
790.000	478.489	80.008	19.994	103.846	20.092	-5.359	0.508
790.500	478.771	80.008	19.994	103.838	20.093	-5.443	0.530
791.000	479.033	80.008	19.994	103.835	20.095	-5.590	0.546
791.500	479.284	80.007	19.993	103.838	20.089	-5.167	0.529
792.000	479.548	80.007	19.994	103.845	20.089	-5.173	0.514
792.500	479.823	80.007	19.994	103.847	20.088	-5.120	0.527
793.000	480.045	80.008	19.995	103.849	20.092	-5.358	0.518
793.500	480.314	80.008	19.993	103.849	20.092	-5.353	0.494
794.000	480.602	80.008	19.995	103.846	20.091	-5.351	0.524
794.500	480.858	80.007	19.994	103.845	20.092	-5.373	0.550
795.000	481.167	80.008	19.994	103.842	20.092	-5.393	0.554
795.500	481.406	80.008	19.995	103.844	20.091	-5.289	0.557
796.000	481.684	80.007	19.994	103.846	20.094	-5.498	0.532
796.500	481.922	80.007	19.994	103.845	20.093	-5.454	0.516
797.000	482.178	80.006	19.995	103.842	20.094	-5.515	0.505
797.500	482.425	80.008	19.995	103.845	20.094	-5.508	0.498
798.000	482.682	80.007	19.995	103.842	20.094	-5.542	0.503
798.500	482.945	80.007	19.994	103.836	20.093	-5.476	0.512
799.000	483.208	80.008	19.994	103.835	20.094	-5.542	0.523
799.500	483.454	80.007	19.995	103.837	20.094	-5.542	0.518
800.000	483.705	80.006	19.994	103.837	20.093	-5.435	0.503
800.500	483.975	80.008	19.995	103.837	20.093	-5.461	0.509
801.000	484.231	80.007	19.994	103.837	20.094	-5.553	0.523
801.500	484.487	80.008	19.994	103.834	20.094	-5.547	0.519
802.000	484.747	80.007	19.996	103.830	20.095	-5.579	0.514
802.500	485.007	80.007	19.994	103.830	20.094	-5.498	0.518
803.000	485.251	80.007	19.995	103.833	20.093	-5.465	0.512
803.500	485.522	80.007	19.995	103.833	20.098	-5.757	0.509
804.000	485.766	80.007	19.995	103.834	20.094	-5.504	0.515
804.500	486.067	80.007	19.995	103.834	20.094	-5.553	0.530
805.000	486.310	80.007	19.994	103.835	20.097	-5.719	0.544
805.500	486.549	80.006	19.995	103.832	20.094	-5.520	0.513
806.000	486.811	80.006	19.995	103.832	20.096	-5.639	0.492
806.500	487.055	80.007	19.995	103.832	20.096	-5.656	0.504
807.000	487.325	80.007	19.994	103.834	20.097	-5.748	0.510
807.500	487.590	80.006	19.994	103.836	20.093	-5.464	0.524
808.000	487.840	80.008	19.994	103.838	20.097	-5.690	0.525
808.500	488.098	80.006	19.995	103.838	20.094	-5.526	0.512
809.000	488.366	80.006	19.996	103.839	20.096	-5.633	0.517
809.500	488.621	80.006	19.995	103.836	20.097	-5.737	0.524
810.000	488.868	80.007	19.994	103.831	20.096	-5.625	0.512
810.500	489.133	80.006	19.995	103.829	20.098	-5.812	0.507
811.000	489.362	80.006	19.996	103.829	20.097	-5.719	0.504
811.500	489.677	80.006	19.993	103.829	20.094	-5.553	0.520
812.000	489.916	80.006	19.995	103.829	20.100	-5.910	0.549
812.500	490.162	80.005	19.995	103.829	20.097	-5.711	0.519
813.000	490.414	80.006	19.995	103.831	20.099	-5.864	0.491
813.500	490.637	80.005	19.994	103.832	20.099	-5.853	0.487
814.000	490.908	80.006	19.994	103.835	20.100	-5.913	0.485
814.500	491.197	80.006	19.995	103.836	20.099	-5.840	0.527
815.000	491.444	80.005	19.995	103.836	20.096	-5.632	0.548
815.500	491.661	80.006	19.995	103.835	20.095	-5.581	0.500
816.000	491.937	80.006	19.994	103.834	20.100	-5.948	0.478
816.500	492.173	80.007	19.994	103.833	20.099	-5.825	0.503
817.000	492.444	80.006	19.994	103.833	20.094	-5.553	0.510
817.500	492.700	80.005	19.995	103.835	20.097	-5.711	0.517
818.000	492.988	80.006	19.994	103.839	20.096	-5.671	0.535
818.500	493.225	80.007	19.993	103.845	20.098	-5.809	0.535
819.000	493.490	80.007	19.994	103.846	20.101	-6.013	0.514
819.500	493.733	80.007	19.993	103.846	20.101	-6.007	0.505
820.000	493.993	80.006	19.994	103.844	20.099	-5.849	0.505
820.500	494.243	80.007	19.994	103.841	20.103	-6.097	0.506
821.000	494.511	80.006	19.994	103.836	20.103	-6.112	0.514
821.500	494.766	80.007	19.994	103.834	20.101	-5.968	0.521
822.000	495.050	80.008	19.992	103.835	20.096	-5.650	0.531
822.500	495.244	80.008	19.994	103.834	20.100	-5.939	0.509
823.000	495.528	80.007	19.994	103.835	20.099	-5.827	0.478
823.500	495.771	80.006	19.993	103.835	20.100	-5.899	0.502
824.000	496.048	80.008	19.995	103.835	20.100	-5.895	0.523
824.500	496.258	80.008	19.995	103.835	20.099	-5.827	0.504
825.000	496.530	80.008	19.994	103.835	20.098	-5.761	0.484
825.500	496.786	80.008	19.995	103.834	20.099	-5.833	0.504
826.000	497.039	80.008	19.995	103.833	20.098	-5.814	0.518
826.500	497.324	80.008	19.994	103.833	20.101	-5.998	0.524
827.000	497.572	80.008	19.995	103.833	20.099	-5.821	0.536
827.500	497.812	80.008	19.994	103.833	20.102	-6.040	0.510
828.000	498.074	80.009	19.994	103.834	20.102	-6.025	0.495
828.500	498.319	80.009	19.994	103.834	20.099	-5.887	0.504
829.000	498.557	80.008	19.994	103.835	20.098	-5.799	0.495
829.500	498.804	80.010	19.995	103.835	20.100	-5.924	0.484
830.000	499.088	80.009	19.993	103.835	20.101	-6.001	0.508
830.500	499.310	80.009	19.993	103.835	20.100	-5.941	0.518
831.000	499.555	80.009	19.993	103.834	20.100	-5.930	0.486
831.500	499.799	80.007	19.995	103.832	20.102	-6.081	0.478
832.000	500.059	80.008	19.993	103.832	20.101	-5.985	0.496
832.500	500.295	80.009	19.993	103.832	20.099	-5.833	0.501
833.000	500.574	80.008	19.993	103.832	20.098	-5.802	0.505
833.500	500.819	80.008	19.994	103.833	20.098	-5.809	0.519
834.000	501.066	80.009	19.995	103.834	20.099	-5.871	0.508
834.500	501.308	80.008	19.994	103.835	20.099	-5.836	0.491
835.000	501.573	80.009	19.993	103.837	20.097	-5.715	0.498
835.500	501.835	80.007	19.995	103.837	20.099	-5.876	0.517
836.000	502.024	80.009	19.994	103.836	20.100	-5.924	0.489
836.500	502.320	80.008	19.993	103.835	20.098	-5.764	0.468
837.000	502.557	80.008	19.995	103.833	20.096	-5.658	0.509
837.500	502.817	80.008	19.995	103.832	20.098	-5.757	0.515
838.000	503.047	80.007	19.993	103.832	20.098	-5.786	0.493
838.500	503.333	80.006	19.995	103.832	20.095	-5.575	0.503
839.000	503.562	80.007	19.994	103.832	20.099	-5.866	0.516
839.500	503.816	80.007	19.995	103.832	20.099	-5.844	0.499
840.000	504.107	80.008	19.994	103.832	20.099	-5.853	0.514
840.500	504.348	80.008	19.994	103.832	20.100	-5.908	0.538
841.000	504.577	80.007	19.994	103.833	20.100	-5.913	0.501
841.500	504.851	80.007	19.995	103.836	20.100	-5.937	0.487
842.000	505.068	80.007	19.994	103.839	20.101	-6.005	0.497
842.500	505.335	80.008	19.995	103.843	20.102	-6.064	0.488
843.000	505.603	80.007	19.993	103.844	20.101	-5.959	0.509
843.500	505.854	80.007	19.993	103.849	20.103	-6.117	0.527
844.000	506.128	80.008	19.994	103.850	20.100	-5.933	0.522
844.500	506.354	80.009	19.994	103.846	20.102	-6.047	0.513
845.000	506.622	80.008	19.995	103.840	20.102	-6.077	0.498
845.500	506.869	80.009	19.993	103.839	20.103	-6.095	0.505
846.000	507.130	80.009	19.993	103.832	20.101	-5.974	0.511
846.500	507.389	80.009	19.994	103.828	20.101	-6.011	0.514
847.000	507.657	80.010	19.993	103.828	20.101	-5.980	0.523
847.500	507.881	80.009	19.994	103.829	20.100	-5.895	0.510
848.000	508.160	80.009	19.994	103.828	20.101	-5.998	0.498
848.500	508.422	80.009	19.994	103.828	20.103	-6.096	0.522
849.000	508.697	80.009	19.995	103.829	20.102	-6.057	0.539
849.500	508.957	80.008	19.994	103.833	20.100	-5.954	0.536
850.000	509.194	80.007	19.994	103.837	20.101	-6.020	0.516
850.500	509.441	80.010	19.994	103.837	20.099	-5.883	0.491
851.000	509.711	80.008	19.993	103.839	20.101	-5.962	0.500
851.500	509.975	80.009	19.993	103.839	20.098	-5.756	0.525
852.000	510.239	80.010	19.993	103.836	20.101	-6.004	0.531
852.500	510.480	80.009	19.994	103.832	20.101	-6.019	0.516
853.000	510.776	80.010	19.994	103.834	20.102	-6.057	0.521
853.500	511.014	80.010	19.993	103.834	20.101	-6.009	0.536
854.000	511.326	80.010	19.993	103.834	20.102	-6.083	0.542
854.500	511.565	80.009	19.993	103.833	20.103	-6.130	0.551
855.000	511.824	80.010	19.994	103.834	20.100	-5.895	0.524
855.500	512.098	80.010	19.993	103.833	20.100	-5.911	0.515
856.000	512.348	80.011	19.994	103.832	20.106	-6.297	0.529
856.500	512.620	80.011	19.993	103.833	20.102	-6.033	0.523
857.000	512.879	80.010	19.993	103.833	20.101	-5.990	0.526
857.500	513.156	80.010	19.993	103.834	20.103	-6.137	0.534
858.000	513.439	80.009	19.993	103.837	20.101	-5.985	0.548
858.500	513.685	80.010	19.994	103.840	20.103	-6.147	0.545
859.000	513.957	80.009	19.993	103.843	20.101	-5.970	0.523
859.500	514.221	80.011	19.992	103.848	20.102	-6.029	0.527
860.000	514.526	80.009	19.994	103.847	20.105	-6.252	0.553
860.500	514.768	80.008	19.993	103.845	20.103	-6.103	0.558
861.000	515.062	80.007	19.994	103.844	20.104	-6.164	0.541
861.500	515.315	80.009	19.994	103.843	20.104	-6.166	0.542
862.000	515.562	80.008	19.994	103.842	20.103	-6.114	0.524
862.500	515.823	80.006	19.993	103.847	20.104	-6.211	0.504
863.000	516.122	80.008	19.994	103.851	20.104	-6.219	0.534
863.500	516.390	80.007	19.994	103.849	20.102	-6.088	0.564
864.000	516.696	80.006	19.994	103.845	20.101	-5.984	0.570
864.500	516.934	80.007	19.995	103.842	20.102	-6.067	0.558
865.000	517.224	80.007	19.993	103.838	20.103	-6.105	0.536
865.500	517.463	80.006	19.993	103.836	20.100	-5.905	0.528
866.000	517.744	80.007	19.994	103.835	20.101	-6.010	0.524
866.500	518.010	80.007	19.994	103.835	20.103	-6.129	0.534
867.000	518.313	80.007	19.993	103.834	20.099	-5.839	0.558
867.500	518.558	80.007	19.993	103.834	20.100	-5.952	0.559
868.000	518.892	80.007	19.994	103.830	20.101	-5.956	0.563
868.500	519.127	80.008	19.994	103.831	20.102	-6.077	0.574
869.000	519.366	80.007	19.995	103.833	20.102	-6.081	0.521
869.500	519.690	80.007	19.994	103.835	20.101	-5.995	0.518
870.000	519.952	80.005	19.993	103.836	20.099	-5.839	0.575
870.500	520.216	80.007	19.995	103.841	20.104	-6.166	0.556
871.000	520.483	80.007	19.995	103.844	20.104	-6.165	0.528
871.500	520.781	80.006	19.996	103.846	20.103	-6.106	0.548
872.000	521.010	80.007	19.994	103.846	20.103	-6.103	0.546
872.500	521.291	80.006	19.995	103.845	20.101	-5.992	0.519
873.000	521.557	80.007	19.994	103.842	20.102	-6.075	0.529
873.500	521.851	80.006	19.995	103.844	20.104	-6.165	0.554
874.000	522.145	80.007	19.996	103.845	20.101	-5.981	0.574
874.500	522.397	80.006	19.995	103.843	20.103	-6.139	0.567
875.000	522.683	80.008	19.994	103.846	20.099	-5.886	0.542
875.500	522.944	80.006	19.993	103.850	20.105	-6.233	0.542
876.000	523.232	80.007	19.994	103.850	20.104	-6.179	0.548
876.500	523.512	80.006	19.994	103.852	20.102	-6.062	0.559
877.000	523.785	80.007	19.994	103.851	20.103	-6.117	0.560
877.500	524.066	80.008	19.995	103.848	20.104	-6.190	0.553
878.000	524.320	80.007	19.993	103.846	20.103	-6.141	0.545
878.500	524.596	80.007	19.995	103.841	20.104	-6.205	0.533
879.000	524.881	80.007	19.995	103.841	20.105	-6.247	0.546
879.500	525.166	80.007	19.993	103.846	20.103	-6.095	0.566
880.000	525.385	80.007	19.994	103.850	20.102	-6.075	0.537
880.500	525.709	80.008	19.995	103.849	20.106	-6.297	0.523
881.000	525.961	80.007	19.994	103.850	20.105	-6.268	0.559
881.500	526.207	80.007	19.994	103.846	20.102	-6.086	0.537
882.000	526.491	80.008	19.995	103.841	20.105	-6.251	0.514
882.500	526.805	80.006	19.994	103.837	20.104	-6.196	0.563
883.000	527.045	80.008	19.992	103.835	20.103	-6.104	0.576
883.500	527.360	80.006	19.993	103.832	20.104	-6.213	0.555
884.000	527.603	80.007	19.995	103.832	20.106	-6.354	0.557
884.500	527.844	80.009	19.995	103.833	20.103	-6.117	0.521
885.000	528.122	80.006	19.995	103.832	20.104	-6.185	0.501
885.500	528.400	80.008	19.993	103.833	20.105	-6.240	0.537
886.000	528.678	80.008	19.995	103.833	20.104	-6.209	0.556
886.500	528.973	80.007	19.994	103.833	20.105	-6.260	0.565
887.000	529.227	80.007	19.994	103.831	20.106	-6.290	0.561
887.500	529.491	80.006	19.995	103.830	20.107	-6.396	0.533
888.000	529.763	80.006	19.993	103.830	20.104	-6.191	0.527
888.500	530.037	80.006	19.995	103.830	20.105	-6.260	0.541
889.000	530.324	80.006	19.994	103.831	20.108	-6.440	0.554
889.500	530.564	80.007	19.995	103.831	20.109	-6.547	0.544
890.000	530.813	80.006	19.994	103.832	20.110	-6.585	0.508
890.500	531.132	80.006	19.995	103.833	20.109	-6.497	0.528
891.000	531.396	80.006	19.995	103.834	20.109	-6.516	0.575
891.500	531.650	80.006	19.994	103.833	20.106	-6.295	0.551
892.000	531.926	80.007	19.995	103.833	20.105	-6.275	0.525
892.500	532.165	80.005	19.995	103.832	20.109	-6.497	0.522
893.000	532.476	80.006	19.994	103.832	20.108	-6.453	0.532
893.500	532.751	80.007	19.996	103.830	20.109	-6.532	0.568
894.000	532.985	80.006	19.994	103.831	20.108	-6.482	0.548
894.500	533.267	80.004	19.995	103.831	20.110	-6.609	0.513
895.000	533.505	80.006	19.994	103.831	20.106	-6.348	0.518
895.500	533.826	80.005	19.995	103.831	20.108	-6.435	0.540
896.000	534.060	80.006	19.994	103.831	20.104	-6.202	0.557
896.500	534.341	80.005	19.994	103.831	20.107	-6.383	0.535
897.000	534.613	80.007	19.994	103.832	20.106	-6.345	0.534
897.500	534.888	80.004	19.996	103.832	20.108	-6.449	0.550
898.000	535.179	80.006	19.995	103.832	20.107	-6.422	0.556
898.500	535.409	80.006	19.996	103.832	20.110	-6.580	0.543
899.000	535.659	80.005	19.995	103.832	20.106	-6.339	0.501
899.500	535.995	80.006	19.995	103.832	20.106	-6.327	0.533
900.000	536.230	80.006	19.995	103.832	20.108	-6.481	0.579
900.500	536.499	80.005	19.995	103.832	20.106	-6.341	0.538
901.000	536.774	80.006	19.995	103.832	20.107	-6.369	0.524
901.500	537.047	80.005	19.995	103.832	20.107	-6.358	0.546
902.000	537.310	80.006	19.995	103.831	20.108	-6.427	0.542
902.500	537.518	80.007	19.995	103.832	20.109	-6.530	0.504
903.000	537.815	80.006	19.995	103.831	20.107	-6.413	0.488
903.500	538.059	80.008	19.996	103.831	20.108	-6.457	0.523
904.000	538.380	80.007	19.995	103.831	20.105	-6.255	0.553
904.500	538.656	80.007	19.995	103.831	20.106	-6.297	0.581
905.000	538.878	80.008	19.995	103.830	20.107	-6.383	0.547
905.500	539.171	80.008	19.996	103.830	20.107	-6.404	0.506
906.000	539.398	80.008	19.994	103.830	20.106	-6.356	0.517
906.500	539.729	80.007	19.995	103.832	20.105	-6.279	0.539
907.000	539.938	80.007	19.995	103.832	20.109	-6.512	0.550
907.500	540.250	80.010	19.995	103.832	20.109	-6.497	0.531
908.000	540.458	80.008	19.995	103.831	20.115	-6.916	0.520
908.500	540.733	80.008	19.995	103.831	20.109	-6.532	0.502
909.000	541.027	80.008	19.994	103.829	20.109	-6.506	0.526
909.500	541.277	80.009	19.994	103.831	20.110	-6.584	0.556
910.000	541.568	80.009	19.995	103.831	20.107	-6.369	0.542
910.500	541.793	80.009	19.994	103.833	20.107	-6.409	0.529
911.000	542.068	80.008	19.994	103.834	20.108	-6.451	0.508
911.500	542.356	80.008	19.994	103.833	20.111	-6.644	0.531
912.000	542.580	80.007	19.994	103.831	20.110	-6.602	0.538
912.500	542.910	80.008	19.994	103.833	20.107	-6.391	0.533
913.000	543.086	80.008	19.995	103.831	20.108	-6.453	0.530
913.500	543.426	80.008	19.994	103.830	20.107	-6.367	0.511
914.000	543.676	80.008	19.993	103.830	20.109	-6.536	0.553
914.500	543.919	80.007	19.995	103.829	20.106	-6.330	0.541
915.000	544.195	80.010	19.994	103.829	20.107	-6.376	0.506
915.500	544.447	80.008	19.993	103.830	20.105	-6.266	0.524
916.000	544.706	80.007	19.994	103.831	20.106	-6.339	0.519
916.500	545.039	80.009	19.993	103.832	20.102	-6.087	0.551
917.000	545.182	80.008	19.994	103.832	20.106	-6.308	0.534
917.500	545.502	80.008	19.994	103.831	20.112	-6.712	0.469
918.000	545.749	80.007	19.993	103.832	20.108	-6.431	0.515
918.500	546.039	80.009	19.994	103.833	20.104	-6.192	0.553
919.000	546.320	80.007	19.993	103.832	20.110	-6.569	0.554
919.500	546.581	80.007	19.993	103.832	20.104	-6.188	0.556
920.000	546.785	80.007	19.994	103.831	20.109	-6.521	0.503
920.500	547.093	80.008	19.994	103.831	20.112	-6.740	0.488
921.000	547.382	80.008	19.993	103.830	20.103	-6.132	0.554
921.500	547.629	80.009	19.994	103.830	20.102	-6.025	0.567
922.000	547.927	80.009	19.993	103.831	20.101	-5.979	0.541
922.500	548.140	80.009	19.994	103.832	20.113	-6.804	0.528
923.000	548.429	80.007	19.993	103.831	20.120	-7.287	0.506
923.500	548.738	80.008	19.993	103.831	20.120	-7.230	0.550
924.000	548.931	80.008	19.994	103.832	20.102	-6.062	0.550
924.500	549.180	80.008	19.994	103.833	20.111	-6.683	0.472
925.000	549.473	80.007	19.996	103.833	20.104	-6.205	0.492
925.500	549.722	80.008	19.994	103.833	20.113	-6.775	0.542
926.000	550.041	80.008	19.994	103.832	20.115	-6.894	0.555
926.500	550.225	80.008	19.993	103.831	20.111	-6.643	0.536
927.000	550.465	80.009	19.994	103.829	20.111	-6.672	0.463
927.500	550.858	80.008	19.993	103.829	20.109	-6.503	0.529
928.000	551.076	80.008	19.994	103.828	20.108	-6.444	0.622
928.500	551.294	80.009	19.994	103.828	20.109	-6.516	0.523
929.000	551.477	80.010	19.994	103.828	20.108	-6.438	0.418
929.500	551.770	80.008	19.993	103.828	20.108	-6.462	0.439
930.000	552.105	80.009	19.993	103.828	20.113	-6.782	0.553
930.500	552.202	80.009	19.994	103.828	20.107	-6.389	0.530
931.000	552.565	80.009	19.994	103.829	20.107	-6.396	0.445
931.500	552.980	80.009	19.994	103.829	20.110	-6.600	0.619
932.000	553.085	80.009	19.995	103.828	20.108	-6.461	0.649
932.500	553.092	80.009	19.993	103.827	20.107	-6.420	0.316
933.000	553.607	80.010	19.993	103.827	20.109	-6.545	0.317
933.500	554.223	80.011	19.993	103.827	20.109	-6.545	0.827
934.000	553.933	80.008	19.993	103.826	20.109	-6.543	0.728
934.500	554.708	80.010	19.994	103.827	20.110	-6.560	0.405
935.000	554.239	80.007	19.993	103.827	20.110	-6.624	0.395
935.500	554.810	80.011	19.993	103.829	20.110	-6.607	0.204
936.000	554.924	80.010	19.993	103.833	20.112	-6.745	0.394
936.500	555.947	80.010	19.993	103.836	20.109	-6.503	0.911
937.000	555.987	80.010	19.994	103.837	20.112	-6.692	1.100
937.500	556.516	80.010	19.993	103.839	20.110	-6.595	0.816
938.000	556.367	80.008	19.993	103.836	20.112	-6.749	0.475
938.500	556.447	80.009	19.992	103.833	20.112	-6.705	0.155
939.000	556.678	80.010	19.993	103.832	20.112	-6.740	0.121
939.500	557.299	80.008	19.994	103.831	20.112	-6.721	0.582
940.000	557.439	80.009	19.994	103.829	20.111	-6.626	0.807
940.500	557.574	80.008	19.993	103.829	20.114	-6.886	0.518
941.000	557.909	80.009	19.994	103.829	20.113	-6.761	0.372
941.500	557.993	80.008	19.993	103.828	20.108	-6.463	0.444
942.000	558.383	80.008	19.993	103.833	20.113	-6.805	0.446
942.500	558.545	80.007	19.994	103.836	20.115	-6.906	0.513
943.000	558.802	80.008	19.993	103.836	20.113	-6.803	0.485
943.500	559.171	80.007	19.991	103.835	20.111	-6.680	0.523
944.000	559.361	80.007	19.995	103.835	20.113	-6.823	0.593
944.500	559.614	80.007	19.995	103.830	20.112	-6.718	0.501
945.000	559.888	80.008	19.996	103.829	20.112	-6.729	0.485
945.500	560.132	80.007	19.994	103.828	20.111	-6.628	0.523
946.000	560.417	80.008	19.994	103.829	20.112	-6.749	0.523
946.500	560.644	80.006	19.994	103.829	20.111	-6.668	0.520
947.000	560.980	80.007	19.995	103.831	20.111	-6.674	0.537
947.500	561.159	80.008	19.993	103.831	20.112	-6.700	0.539
948.000	561.366	80.007	19.994	103.832	20.111	-6.652	0.451
948.500	561.782	80.007	19.995	103.832	20.112	-6.716	0.505
949.000	561.979	80.006	19.993	103.833	20.113	-6.800	0.618
949.500	562.151	80.007	19.994	103.832	20.113	-6.780	0.491
950.000	562.477	80.007	19.993	103.833	20.110	-6.560	0.433
950.500	562.689	80.008	19.993	103.833	20.112	-6.742	0.518
951.000	562.966	80.006	19.994	103.834	20.110	-6.613	0.514
951.500	563.292	80.008	19.993	103.841	20.113	-6.791	0.546
952.000	563.421	80.007	19.994	103.845	20.114	-6.841	0.529
952.500	563.703	80.008	19.994	103.846	20.113	-6.817	0.432
953.000	563.991	80.007	19.994	103.846	20.111	-6.670	0.490
953.500	564.234	80.007	19.994	103.845	20.113	-6.795	0.551
954.000	564.485	80.007	19.993	103.840	20.114	-6.868	0.513
954.500	564.713	80.008	19.994	103.840	20.116	-6.988	0.486
955.000	564.960	80.007	19.994	103.840	20.112	-6.751	0.477
955.500	565.170	80.007	19.995	103.839	20.116	-6.977	0.466
956.000	565.515	80.007	19.995	103.839	20.115	-6.942	0.506
956.500	565.779	80.007	19.994	103.840	20.110	-6.606	0.582
957.000	565.991	80.007	19.992	103.837	20.111	-6.687	0.543
957.500	566.182	80.006	19.995	103.836	20.112	-6.700	0.440
958.000	566.564	80.008	19.994	103.836	20.111	-6.643	0.488
958.500	566.739	80.007	19.994	103.836	20.112	-6.703	0.565
959.000	566.977	80.007	19.994	103.834	20.115	-6.947	0.485
959.500	567.284	80.007	19.994	103.833	20.114	-6.876	0.479
960.000	567.521	80.008	19.994	103.833	20.110	-6.624	0.545
960.500	567.734	80.007	19.994	103.832	20.110	-6.580	0.497
961.000	568.075	80.007	19.994	103.834	20.112	-6.716	0.502
961.500	568.265	80.007	19.993	103.835	20.111	-6.648	0.543
962.000	568.509	80.008	19.993	103.835	20.115	-6.894	0.483
962.500	568.794	80.007	19.995	103.836	20.114	-6.863	0.481
963.000	569.050	80.008	19.994	103.836	20.113	-6.773	0.535
963.500	569.302	80.008	19.992	103.834	20.114	-6.866	0.525
964.000	569.515	80.008	19.994	103.834	20.114	-6.831	0.487
964.500	569.814	80.007	19.995	103.834	20.112	-6.712	0.489
965.000	570.023	80.007	19.994	103.834	20.115	-6.940	0.510
965.500	570.304	80.007	19.993	103.834	20.112	-6.732	0.499
966.000	570.576	80.008	19.993	103.836	20.112	-6.739	0.522
966.500	570.881	80.007	19.994	103.838	20.115	-6.934	0.565
967.000	571.054	80.006	19.994	103.840	20.114	-6.866	0.527
967.500	571.377	80.006	19.995	103.840	20.114	-6.863	0.487
968.000	571.609	80.008	19.995	103.839	20.113	-6.760	0.526
968.500	571.873	80.008	19.995	103.836	20.112	-6.754	0.525
969.000	572.109	80.007	19.996	103.833	20.112	-6.710	0.498
969.500	572.398	80.007	19.994	103.831	20.113	-6.804	0.513
970.000	572.579	80.007	19.993	103.830	20.111	-6.670	0.498
970.500	572.857	80.008	19.994	103.829	20.112	-6.755	0.465
971.000	573.079	80.008	19.993	103.829	20.113	-6.782	0.479
971.500	573.410	80.007	19.995	103.828	20.111	-6.686	0.526
972.000	573.597	80.007	19.996	103.828	20.109	-6.554	0.536
972.500	573.867	80.007	19.995	103.829	20.110	-6.605	0.487
973.000	574.156	80.007	19.995	103.828	20.109	-6.537	0.508
973.500	574.405	80.007	19.994	103.829	20.114	-6.866	0.549
974.000	574.617	80.006	19.995	103.829	20.112	-6.738	0.500
974.500	574.917	80.007	19.994	103.829	20.114	-6.870	0.486
975.000	575.175	80.007	19.993	103.829	20.114	-6.882	0.535
975.500	575.401	80.007	19.993	103.829	20.114	-6.840	0.522
976.000	575.687	80.007	19.993	103.829	20.114	-6.879	0.498
976.500	575.918	80.006	19.994	103.827	20.116	-6.991	0.514
977.000	576.148	80.006	19.995	103.826	20.113	-6.814	0.488
977.500	576.421	80.006	19.995	103.827	20.111	-6.639	0.482
978.000	576.696	80.006	19.995	103.828	20.114	-6.850	0.526
978.500	576.904	80.006	19.995	103.828	20.113	-6.778	0.516
979.000	577.174	80.007	19.995	103.830	20.112	-6.740	0.481
979.500	577.402	80.007	19.993	103.830	20.110	-6.607	0.488
980.000	577.708	80.008	19.992	103.831	20.113	-6.802	0.516
980.500	577.909	80.007	19.995	103.834	20.113	-6.817	0.520
981.000	578.154	80.007	19.995	103.834	20.116	-6.982	0.476
981.500	578.428	80.007	19.995	103.833	20.113	-6.793	0.482
982.000	578.638	80.007	19.994	103.833	20.116	-7.013	0.502
982.500	578.851	80.007	19.995	103.830	20.113	-6.796	0.453
983.000	579.135	80.007	19.994	103.828	20.115	-6.938	0.460
983.500	579.401	80.007	19.994	103.827	20.112	-6.732	0.524
984.000	579.608	80.008	19.995	103.827	20.114	-6.861	0.512
984.500	579.867	80.006	19.995	103.828	20.115	-6.918	0.469
985.000	580.103	80.008	19.995	103.829	20.116	-6.971	0.481
985.500	580.354	80.009	19.994	103.836	20.114	-6.857	0.491
986.000	580.607	80.006	19.994	103.844	20.114	-6.886	0.496
986.500	580.829	80.008	19.995	103.851	20.115	-6.923	0.490
987.000	581.096	80.007	19.995	103.855	20.116	-6.973	0.482
987.500	581.378	80.009	19.994	103.855	20.116	-6.995	0.519
988.000	581.601	80.010	19.995	103.850	20.114	-6.888	0.527
988.500	581.855	80.008	19.993	103.842	20.116	-6.991	0.490
989.000	582.143	80.009	19.995	103.834	20.112	-6.758	0.509
989.500	582.364	80.008	19.995	103.831	20.114	-6.872	0.526
990.000	582.599	80.009	19.995	103.830	20.113	-6.824	0.483
990.500	582.864	80.010	19.994	103.829	20.114	-6.859	0.478
991.000	583.107	80.009	19.994	103.829	20.113	-6.820	0.504
991.500	583.353	80.008	19.995	103.829	20.116	-6.967	0.498
992.000	583.565	80.008	19.996	103.827	20.116	-6.975	0.473
992.500	583.822	80.007	19.995	103.827	20.115	-6.909	0.464
993.000	584.050	80.009	19.994	103.826	20.116	-7.023	0.477
993.500	584.291	80.008	19.996	103.826	20.115	-6.958	0.477
994.000	584.553	80.007	19.995	103.827	20.116	-6.986	0.486
994.500	584.785	80.007	19.995	103.827	20.116	-6.967	0.499
995.000	585.016	80.007	19.996	103.826	20.114	-6.872	0.478
995.500	585.290	80.008	19.993	103.827	20.116	-6.996	0.484
996.000	585.519	80.008	19.996	103.827	20.118	-7.119	0.504
996.500	585.740	80.009	19.995	103.827	20.116	-7.024	0.476
997.000	586.029	80.009	19.995	103.827	20.114	-6.890	0.480
997.500	586.278	80.008	19.997	103.826	20.116	-6.971	0.524
998.000	586.515	80.007	19.996	103.825	20.117	-7.085	0.512
998.500	586.744	80.008	19.995	103.826	20.115	-6.909	0.476
999.000	586.980	80.008	19.995	103.826	20.117	-7.080	0.466
999.500	587.238	80.008	19.995	103.826	20.117	-7.037	0.479
1000.000	587.429	80.008	19.995	103.828	20.116	-7.017	0.472
1000.500	587.706	80.008	19.993	103.829	20.116	-6.995	0.459
1001.000	587.955	80.009	19.994	103.829	20.114	-6.870	0.497
1001.500	588.195	80.008	19.995	103.829	20.117	-7.085	0.507
1002.000	588.454	80.009	19.995	103.829	20.116	-7.002	0.494
1002.500	588.679	80.006	19.994	103.830	20.115	-6.898	0.492
1003.000	588.928	80.007	19.994	103.830	20.116	-6.971	0.479
1003.500	589.168	80.006	19.992	103.830	20.115	-6.903	0.482
1004.000	589.386	80.008	19.995	103.831	20.118	-7.120	0.473
1004.500	589.638	80.009	19.995	103.831	20.118	-7.129	0.464
1005.000	589.882	80.009	19.995	103.831	20.111	-6.657	0.483
1005.500	590.120	80.008	19.995	103.830	20.114	-6.881	0.489
1006.000	590.376	80.008	19.993	103.827	20.112	-6.730	0.488
1006.500	590.537	80.009	19.994	103.821	20.118	-7.157	0.456
1007.000	590.870	80.009	19.993	103.819	20.117	-7.028	0.456
1007.500	591.057	80.009	19.994	103.820	20.114	-6.853	0.507
1008.000	591.339	80.009	19.995	103.821	20.115	-6.894	0.494
1008.500	591.572	80.009	19.995	103.824	20.113	-6.815	0.491
1009.000	591.805	80.009	19.993	103.831	20.114	-6.844	0.490
1009.500	592.065	80.009	19.995	103.832	20.115	-6.898	0.480
1010.000	592.322	80.010	19.994	103.832	20.116	-6.997	0.505
1010.500	592.552	80.010	19.994	103.832	20.115	-6.931	0.502
1011.000	592.771	80.009	19.994	103.832	20.113	-6.775	0.468
1011.500	593.042	80.008	19.994	103.832	20.113	-6.811	0.469
1012.000	593.289	80.009	19.994	103.832	20.114	-6.872	0.504
1012.500	593.542	80.010	19.993	103.832	20.113	-6.821	0.509
1013.000	593.773	80.010	19.994	103.831	20.117	-7.047	0.493
1013.500	594.061	80.011	19.993	103.831	20.115	-6.900	0.502
1014.000	594.298	80.009	19.994	103.831	20.115	-6.933	0.522
1014.500	594.532	80.009	19.994	103.831	20.115	-6.938	0.498
1015.000	594.775	80.009	19.995	103.831	20.113	-6.806	0.474
1015.500	595.016	80.009	19.994	103.831	20.114	-6.878	0.481
1016.000	595.267	80.008	19.993	103.831	20.114	-6.883	0.487
1016.500	595.509	80.009	19.993	103.830	20.117	-7.028	0.492
1017.000	595.770	80.009	19.994	103.830	20.114	-6.861	0.498
1017.500	596.030	80.010	19.993	103.829	20.115	-6.931	0.512
1018.000	596.287	80.010	19.993	103.829	20.115	-6.926	0.519
1018.500	596.520	80.011	19.993	103.829	20.113	-6.771	0.503
1019.000	596.775	80.010	19.994	103.829	20.116	-6.977	0.489
1019.500	597.017	80.009	19.993	103.829	20.114	-6.828	0.492
1020.000	597.227	80.009	19.993	103.829	20.115	-6.914	0.475
1020.500	597.520	80.008	19.994	103.830	20.116	-6.984	0.478
1021.000	597.719	80.009	19.995	103.830	20.115	-6.936	0.497
1021.500	597.962	80.007	19.994	103.830	20.114	-6.879	0.467
1022.000	598.223	80.008	19.993	103.831	20.115	-6.894	0.473
1022.500	598.475	80.009	19.994	103.831	20.116	-7.004	0.509
1023.000	598.707	80.007	19.993	103.832	20.113	-6.778	0.499
1023.500	598.944	80.008	19.994	103.832	20.117	-7.078	0.476
1024.000	599.220	80.007	19.994	103.832	20.114	-6.874	0.491
1024.499	599.459	80.007	19.994	103.832	20.116	-6.990	0.514
1024.999	599.716	80.007	19.994	103.832	20.117	-7.052	0.505
1025.499	599.928	80.006	19.995	103.833	20.115	-6.945	0.482
1025.999	600.181	80.006	19.995	103.833	20.116	-6.995	0.467
1026.499	600.462	80.006	19.994	103.834	20.117	-7.032	0.500
1026.999	600.681	80.007	19.994	103.834	20.115	-6.936	0.517
1027.499	600.922	80.008	19.994	103.836	20.116	-6.962	0.480
1027.999	601.201	80.006	19.993	103.837	20.116	-6.988	0.490
1028.500	601.411	80.007	19.995	103.836	20.112	-6.752	0.505
1029.000	601.665	80.007	19.996	103.836	20.114	-6.833	0.477
1029.499	601.904	80.008	19.995	103.836	20.115	-6.951	0.478
1029.999	602.162	80.007	19.994	103.835	20.117	-7.089	0.495
1030.499	602.428	80.007	19.994	103.832	20.115	-6.955	0.511
1030.999	602.647	80.008	19.993	103.829	20.117	-7.043	0.505
1031.499	602.902	80.007	19.993	103.829	20.117	-7.092	0.479
1031.999	603.158	80.007	19.995	103.829	20.115	-6.909	0.492
1032.499	603.380	80.008	19.995	103.828	20.115	-6.947	0.495
1032.999	603.633	80.007	19.994	103.829	20.119	-7.190	0.476
1033.499	603.878	80.007	19.995	103.831	20.117	-7.068	0.487
1033.999	604.125	80.008	19.995	103.833	20.115	-6.910	0.495
1034.499	604.385	80.009	19.994	103.834	20.117	-7.035	0.499
1034.999	604.660	80.008	19.995	103.834	20.118	-7.101	0.521
1035.499	604.910	80.007	19.995	103.834	20.117	-7.081	0.530
1035.999	605.133	80.006	19.995	103.833	20.114	-6.844	0.499
1036.499	605.361	80.006	19.995	103.831	20.117	-7.044	0.462
1036.999	605.649	80.007	19.993	103.830	20.116	-7.004	0.483
1037.500	605.881	80.008	19.995	103.830	20.115	-6.958	0.518
1038.000	606.100	80.007	19.993	103.830	20.116	-6.973	0.485
1038.499	606.390	80.008	19.994	103.829	20.118	-7.115	0.480
1038.999	606.634	80.009	19.993	103.829	20.116	-6.992	0.522
1039.499	606.863	80.008	19.994	103.829	20.113	-6.808	0.504
1039.999	607.131	80.009	19.994	103.829	20.116	-6.984	0.485
1040.499	607.364	80.007	19.994	103.829	20.114	-6.870	0.499
1040.999	607.591	80.007	19.995	103.829	20.119	-7.162	0.480
1041.499	607.831	80.007	19.994	103.829	20.116	-6.986	0.463
1041.999	608.112	80.008	19.994	103.828	20.115	-6.942	0.494
1042.499	608.348	80.008	19.995	103.828	20.116	-7.022	0.518
1042.999	608.576	80.007	19.994	103.829	20.116	-7.000	0.490
1043.499	608.872	80.009	19.993	103.828	20.118	-7.153	0.494
1043.999	609.099	80.008	19.994	103.828	20.114	-6.853	0.523
1044.499	609.369	80.008	19.994	103.829	20.116	-6.993	0.510
1044.999	609.625	80.008	19.994	103.830	20.115	-6.908	0.511
1045.499	609.847	80.008	19.996	103.828	20.118	-7.129	0.502
1045.999	610.111	80.007	19.995	103.825	20.115	-6.892	0.482
1046.499	610.341	80.008	19.994	103.825	20.118	-7.155	0.490
1046.999	610.600	80.008	19.995	103.822	20.117	-7.088	0.491
1047.499	610.851	80.007	19.993	103.822	20.116	-6.983	0.499
1047.999	611.098	80.007	19.995	103.824	20.116	-6.963	0.504
1048.499	611.337	80.008	19.996	103.828	20.117	-7.038	0.492
1048.999	611.598	80.007	19.994	103.831	20.118	-7.132	0.493
1049.499	611.824	80.008	19.994	103.836	20.116	-7.014	0.493
1049.999	612.106	80.008	19.996	103.838	20.119	-7.202	0.498
1050.499	612.345	80.008	19.995	103.839	20.117	-7.072	0.514
1050.999	612.615	80.007	19.996	103.837	20.118	-7.119	0.515
1051.499	612.833	80.007	19.995	103.834	20.117	-7.029	0.498
1051.999	613.091	80.007	19.996	103.832	20.119	-7.202	0.482
1052.500	613.374	80.007	19.994	103.830	20.117	-7.083	0.509
1053.000	613.592	80.007	19.995	103.829	20.117	-7.061	0.521
1053.499	613.814	80.006	19.995	103.828	20.116	-6.960	0.470
1053.999	614.104	80.009	19.996	103.827	20.118	-7.094	0.476
1054.499	614.377	80.006	19.996	103.826	20.116	-7.024	0.538
1054.999	614.590	80.008	19.995	103.826	20.117	-7.055	0.525
1055.499	614.872	80.007	19.995	103.825	20.110	-6.607	0.491
1056.000	615.135	80.007	19.995	103.826	20.118	-7.142	0.520
1056.500	615.373	80.008	19.996	103.826	20.116	-6.971	0.523
1056.999	615.664	80.005	19.995	103.827	20.111	-6.690	0.515
1057.499	615.891	80.007	19.995	103.827	20.113	-6.811	0.524
1057.999	616.163	80.007	19.995	103.825	20.115	-6.913	0.509
1058.499	616.362	80.007	19.995	103.820	20.118	-7.115	0.485
1058.999	616.643	80.006	19.996	103.819	20.114	-6.887	0.475
1059.499	616.917	80.006	19.995	103.819	20.114	-6.870	0.517
1059.999	617.168	80.007	19.996	103.817	20.119	-7.217	0.540
1060.499	617.403	80.008	19.994	103.817	20.116	-7.006	0.506
1061.000	617.654	80.007	19.995	103.822	20.116	-6.975	0.486
1061.500	617.899	80.008	19.996	103.823	20.113	-6.789	0.491
1061.999	618.164	80.007	19.995	103.822	20.115	-6.912	0.503
1062.499	618.413	80.007	19.993	103.823	20.116	-7.010	0.512
1062.999	618.673	80.008	19.995	103.826	20.117	-7.091	0.512
1063.499	618.927	80.006	19.994	103.827	20.116	-6.993	0.511
1063.999	619.176	80.008	19.996	103.828	20.113	-6.824	0.508
1064.499	619.393	80.007	19.995	103.829	20.117	-7.030	0.485
1064.999	619.700	80.007	19.996	103.830	20.116	-7.004	0.495
1065.499	619.938	80.009	19.996	103.828	20.119	-7.175	0.534
1065.999	620.176	80.008	19.995	103.827	20.118	-7.105	0.510
1066.499	620.465	80.010	19.994	103.826	20.114	-6.866	0.502
1066.999	620.649	80.008	19.996	103.827	20.118	-7.096	0.500
1067.499	620.934	80.009	19.994	103.828	20.119	-7.164	0.471
1067.999	621.216	80.009	19.995	103.832	20.118	-7.105	0.518
1068.499	621.461	80.008	19.995	103.833	20.112	-6.701	0.547
1068.999	621.716	80.009	19.994	103.833	20.116	-6.962	0.513
1069.499	621.984	80.008	19.993	103.834	20.117	-7.054	0.512
1069.999	622.167	80.009	19.995	103.834	20.116	-6.964	0.487
1070.499	622.419	80.009	19.997	103.831	20.118	-7.153	0.443
1070.999	622.698	80.008	19.995	103.831	20.118	-7.133	0.483
1071.499	622.928	80.010	19.994	103.831	20.120	-7.241	0.520
1071.999	623.222	80.009	19.993	103.831	20.119	-7.166	0.516
1072.499	623.432	80.008	19.996	103.831	20.116	-7.000	0.514
1072.999	623.715	80.008	19.995	103.831	20.115	-6.894	0.499
1073.499	623.969	80.008	19.995	103.831	20.119	-7.167	0.515
1073.999	624.213	80.009	19.993	103.831	20.117	-7.089	0.517
1074.499	624.482	80.008	19.995	103.831	20.117	-7.091	0.505
1074.999	624.691	80.008	19.995	103.832	20.120	-7.261	0.495
1075.499	624.938	80.007	19.995	103.826	20.119	-7.164	0.467
1075.999	625.211	80.008	19.995	103.824	20.118	-7.105	0.488
1076.499	625.430	80.007	19.993	103.824	20.116	-6.991	0.506
1076.999	625.740	80.008	19.994	103.824	20.117	-7.066	0.511
1077.499	625.974	80.007	19.996	103.824	20.121	-7.298	0.537
1077.999	626.181	80.007	19.995	103.830	20.118	-7.131	0.493
1078.499	626.477	80.008	19.995	103.832	20.114	-6.859	0.472
1078.999	626.755	80.008	19.995	103.832	20.115	-6.896	0.538
1079.499	626.983	80.008	19.996	103.832	20.118	-7.157	0.540
1079.999	627.240	80.008	19.995	103.832	20.116	-6.975	0.495
1080.499	627.489	80.008	19.996	103.833	20.118	-7.133	0.496
1080.999	627.747	80.007	19.996	103.833	20.121	-7.320	0.507
1081.499	627.952	80.008	19.995	103.833	20.121	-7.307	0.485
1081.999	628.239	80.008	19.996	103.832	20.122	-7.399	0.478
1082.499	628.473	80.007	19.995	103.831	20.119	-7.178	0.506
1082.999	628.739	80.007	19.997	103.827	20.118	-7.147	0.510
1083.499	628.958	80.007	19.995	103.826	20.115	-6.892	0.493
1083.999	629.231	80.008	19.997	103.826	20.117	-7.057	0.489
1084.499	629.517	80.007	19.994	103.826	20.116	-7.010	0.526
1084.999	629.726	80.008	19.993	103.828	20.116	-6.980	0.527
1085.499	629.989	80.008	19.994	103.831	20.119	-7.199	0.484
1085.999	630.217	80.008	19.995	103.832	20.119	-7.173	0.482
1086.499	630.510	80.007	19.995	103.832	20.116	-6.975	0.506
1086.999	630.780	80.008	19.995	103.832	20.117	-7.074	0.542
1087.499	631.012	80.008	19.995	103.830	20.121	-7.300	0.532
1087.999	631.281	80.008	19.995	103.824	20.115	-6.936	0.501
1088.499	631.542	80.008	19.996	103.824	20.118	-7.127	0.516
1088.999	631.764	80.009	19.994	103.824	20.116	-7.022	0.507
1089.499	632.005	80.007	19.995	103.824	20.116	-6.984	0.473
1089.999	632.249	80.008	19.995	103.827	20.115	-6.940	0.474
1090.499	632.534	80.008	19.995	103.833	20.117	-7.052	0.507
1090.999	632.762	80.009	19.995	103.833	20.116	-6.999	0.521
1091.499	633.047	80.009	19.995	103.832	20.116	-7.004	0.513
1091.999	633.287	80.008	19.994	103.831	20.119	-7.162	0.519
1092.499	633.523	80.009	19.994	103.828	20.115	-6.943	0.500
1092.999	633.809	80.009	19.994	103.825	20.119	-7.182	0.499
1093.499	634.034	80.009	19.994	103.824	20.119	-7.173	0.517
1093.999	634.301	80.010	19.993	103.824	20.116	-7.024	0.502
1094.499	634.580	80.009	19.993	103.825	20.117	-7.088	0.519
1094.999	634.852	80.009	19.994	103.827	20.119	-7.205	0.549
1095.499	635.081	80.008	19.993	103.829	20.119	-7.194	0.526
1095.999	635.362	80.011	19.994	103.830	20.117	-7.070	0.505
1096.499	635.614	80.011	19.994	103.829	20.122	-7.368	0.522
1096.999	635.859	80.009	19.994	103.828	20.117	-7.064	0.515
1097.499	636.060	80.010	19.994	103.828	20.120	-7.291	0.471
1097.999	636.366	80.009	19.994	103.828	20.117	-7.057	0.476
1098.499	636.585	80.010	19.994	103.827	20.119	-7.162	0.516
1098.999	636.816	80.010	19.993	103.827	20.121	-7.302	0.488
1099.499	637.082	80.009	19.992	103.827	20.117	-7.087	0.474
1099.999	637.355	80.009	19.994	103.827	20.118	-7.147	0.518
1100.499	637.571	80.008	19.994	103.827	20.117	-7.076	0.514
1100.999	637.851	80.009	19.992	103.828	20.118	-7.144	0.492
1101.499	638.070	80.008	19.992	103.828	20.118	-7.134	0.497
1101.999	638.322	80.009	19.994	103.829	20.120	-7.288	0.485
1102.499	638.601	80.008	19.995	103.827	20.119	-7.191	0.501
1102.999	638.864	80.008	19.995	103.827	20.115	-6.909	0.537
1103.499	639.094	80.008	19.993	103.825	20.117	-7.093	0.517
1103.999	639.337	80.007	19.993	103.825	20.118	-7.122	0.483
1104.500	639.599	80.006	19.996	103.821	20.118	-7.118	0.489
1105.000	639.835	80.008	19.994	103.819	20.116	-7.008	0.502
1105.499	640.115	80.007	19.994	103.818	20.118	-7.114	0.507
1105.999	640.368	80.008	19.994	103.817	20.116	-6.991	0.525
1106.499	640.596	80.008	19.994	103.817	20.117	-7.087	0.507
1106.999	640.849	80.007	19.995	103.822	20.116	-6.993	0.481
1107.499	641.138	80.007	19.995	103.825	20.117	-7.045	0.511
1107.999	641.360	80.007	19.994	103.825	20.114	-6.852	0.526
1108.499	641.624	80.007	19.994	103.827	20.118	-7.114	0.498
1108.999	641.872	80.007	19.995	103.828	20.114	-6.835	0.499
1109.499	642.137	80.007	19.993	103.827	20.115	-6.892	0.513
1109.999	642.356	80.008	19.994	103.827	20.117	-7.089	0.499
1110.499	642.644	80.007	19.994	103.828	20.116	-6.970	0.495
1110.999	642.877	80.007	19.995	103.829	20.117	-7.067	0.514
1111.499	643.102	80.007	19.995	103.832	20.120	-7.264	0.489
1111.999	643.370	80.008	19.995	103.838	20.115	-6.892	0.475
1112.499	643.610	80.007	19.995	103.844	20.117	-7.035	0.501
1112.999	643.860	80.007	19.995	103.845	20.120	-7.254	0.499
1113.499	644.124	80.008	19.994	103.844	20.116	-7.024	0.502
1113.999	644.356	80.008	19.994	103.841	20.120	-7.231	0.505
1114.499	644.608	80.007	19.996	103.835	20.112	-6.750	0.490
1114.999	644.891	80.008	19.993	103.830	20.115	-6.934	0.510
1115.499	645.112	80.008	19.996	103.829	20.114	-6.884	0.519
1115.999	645.366	80.008	19.995	103.829	20.116	-6.983	0.489
1116.499	645.629	80.007	19.995	103.828	20.121	-7.325	0.496
1116.999	645.866	80.007	19.994	103.830	20.117	-7.060	0.508
1117.499	646.081	80.007	19.993	103.830	20.117	-7.043	0.476
1118.000	646.330	80.007	19.994	103.830	20.119	-7.225	0.458
1118.500	646.643	80.007	19.995	103.830	20.120	-7.242	0.513
1118.999	646.868	80.007	19.995	103.830	20.116	-6.990	0.550
1119.499	647.145	80.006	19.994	103.829	20.120	-7.288	0.520
1119.999	647.390	80.007	19.994	103.833	20.118	-7.151	0.512
1120.499	647.638	80.006	19.994	103.835	20.118	-7.101	0.507
1120.999	647.893	80.008	19.995	103.836	20.117	-7.063	0.497
1121.499	648.117	80.007	19.995	103.839	20.119	-7.166	0.491
1121.999	648.404	80.007	19.993	103.839	20.121	-7.316	0.495
1122.499	648.643	80.008	19.995	103.835	20.123	-7.432	0.519
1122.999	648.895	80.009	19.994	103.832	20.122	-7.377	0.509
1123.500	649.141	80.007	19.994	103.828	20.120	-7.237	0.495
1124.000	649.406	80.007	19.997	103.823	20.118	-7.094	0.505
1124.499	649.634	80.007	19.996	103.822	20.120	-7.265	0.502
1124.999	649.919	80.006	19.996	103.822	20.119	-7.193	0.503
1125.499	650.146	80.007	19.994	103.822	20.121	-7.310	0.513
1125.999	650.402	80.008	19.995	103.826	20.116	-7.016	0.498
1126.499	650.652	80.008	19.996	103.825	20.119	-7.179	0.495
1126.999	650.952	80.007	19.995	103.822	20.121	-7.293	0.528
1127.499	651.154	80.008	19.994	103.821	20.120	-7.288	0.526
1127.999	651.432	80.008	19.994	103.816	20.117	-7.071	0.491
1128.499	651.639	80.007	19.995	103.812	20.115	-6.943	0.483
1128.999	651.932	80.007	19.995	103.813	20.116	-6.971	0.492
1129.499	652.148	80.007	19.994	103.814	20.117	-7.082	0.504
1129.999	652.498	80.007	19.993	103.816	20.118	-7.150	0.537
1130.499	652.645	80.007	19.995	103.821	20.118	-7.142	0.532
1130.999	652.938	80.007	19.993	103.826	20.118	-7.094	0.469
1131.499	653.256	80.006	19.995	103.828	20.117	-7.036	0.526
1132.000	653.507	80.007	19.993	103.830	20.118	-7.135	0.590
1132.500	653.834	80.007	19.994	103.829	20.116	-6.971	0.573
1132.999	653.746	80.007	19.995	103.830	20.118	-7.103	0.408
1133.500	654.280	80.006	19.995	103.829	20.118	-7.103	0.343
1134.000	654.392	80.005	19.994	103.829	20.120	-7.241	0.547
1134.500	654.741	80.007	19.994	103.828	20.117	-7.037	0.554
1135.000	655.024	80.006	19.994	103.829	20.116	-6.999	0.546
1135.499	655.261	80.005	19.993	103.827	20.118	-7.149	0.576
1135.999	655.482	80.006	19.993	103.823	20.115	-6.947	0.489
1136.499	655.764	80.006	19.994	103.820	20.121	-7.311	0.480
1136.999	656.047	80.007	19.995	103.817	20.118	-7.104	0.534
1137.499	656.265	80.006	19.993	103.811	20.120	-7.271	0.533
1137.999	656.604	80.006	19.995	103.807	20.120	-7.287	0.529
1138.499	656.790	80.007	19.994	103.812	20.122	-7.423	0.541
1138.999	657.100	80.007	19.995	103.815	20.119	-7.206	0.510
1139.499	657.345	80.007	19.995	103.820	20.121	-7.311	0.526
1139.999	657.551	80.007	19.994	103.827	20.121	-7.312	0.503
1140.499	657.815	80.006	19.993	103.834	20.119	-7.166	0.461
1140.999	658.110	80.007	19.994	103.834	20.119	-7.203	0.515
1141.499	658.362	80.007	19.995	103.833	20.123	-7.436	0.553
1141.999	658.592	80.007	19.995	103.832	20.122	-7.413	0.515
1142.499	658.858	80.007	19.994	103.832	20.120	-7.229	0.489
1142.999	659.117	80.007	19.994	103.832	20.121	-7.318	0.510
1143.499	659.374	80.006	19.994	103.832	20.120	-7.244	0.520
1143.999	659.656	80.006	19.995	103.831	20.122	-7.428	0.528
1144.499	659.910	80.006	19.994	103.831	20.121	-7.323	0.538
1145.000	660.161	80.006	19.994	103.831	20.122	-7.387	0.521
1145.500	660.421	80.008	19.994	103.830	20.118	-7.144	0.508
1145.999	660.669	80.007	19.994	103.829	20.120	-7.256	0.509
1146.499	660.935	80.008	19.995	103.830	20.119	-7.214	0.510
1146.999	661.229	80.007	19.994	103.830	20.123	-7.434	0.536
1147.499	661.465	80.007	19.994	103.833	20.114	-6.890	0.545
1147.999	661.722	80.007	19.995	103.834	20.110	-6.578	0.512
1148.499	662.014	80.006	19.993	103.835	20.123	-7.469	0.521
1148.999	662.303	80.008	19.995	103.831	20.118	-7.149	0.565
1149.499	662.523	80.007	19.994	103.831	20.123	-7.447	0.545
1149.999	662.809	80.007	19.995	103.826	20.120	-7.267	0.508
1150.499	663.056	80.008	19.994	103.826	20.120	-7.238	0.519
1150.999	663.342	80.007	19.994	103.826	20.119	-7.174	0.532
1151.499	663.571	80.008	19.994	103.831	20.119	-7.210	0.524
1151.999	663.861	80.008	19.994	103.832	20.121	-7.357	0.517
1152.499	664.092	80.008	19.994	103.836	20.123	-7.443	0.520
1152.999	664.400	80.008	19.995	103.841	20.117	-7.093	0.531
1153.499	664.622	80.007	19.994	103.843	20.120	-7.278	0.535
1154.000	664.895	80.006	19.994	103.846	20.118	-7.114	0.513
1154.500	665.170	80.007	19.995	103.850	20.124	-7.515	0.521
1154.999	665.407	80.007	19.994	103.851	20.118	-7.125	0.530
1155.499	665.705	80.007	19.995	103.847	20.119	-7.199	0.523
1155.999	665.930	80.007	19.994	103.844	20.120	-7.290	0.529
1156.499	666.187	80.008	19.995	103.840	20.122	-7.404	0.502
1156.999	666.484	80.007	19.994	103.835	20.120	-7.246	0.518
1157.499	666.717	80.009	19.994	103.832	20.118	-7.134	0.542
1157.999	666.993	80.008	19.994	103.831	20.120	-7.268	0.520
1158.499	667.240	80.008	19.993	103.830	20.120	-7.289	0.516
1158.999	667.496	80.008	19.995	103.830	20.121	-7.311	0.513
1159.499	667.711	80.006	19.995	103.830	20.118	-7.149	0.487
1159.999	668.003	80.007	19.994	103.830	20.123	-7.436	0.489
1160.499	668.333	80.008	19.994	103.831	20.117	-7.076	0.565
1160.999	668.512	80.006	19.994	103.835	20.121	-7.344	0.565
1161.499	668.601	80.006	19.995	103.836	20.121	-7.294	0.389
1161.999	668.805	80.008	19.992	103.835	20.117	-7.066	0.281
1162.499	669.415	80.008	19.994	103.836	20.120	-7.228	0.553
1162.999	669.525	80.007	19.994	103.837	20.116	-6.993	0.767
1163.499	669.876	80.007	19.995	103.833	20.117	-7.063	0.590
1163.999	670.156	80.007	19.994	103.832	20.119	-7.210	0.545
1164.499	670.328	80.007	19.994	103.833	20.120	-7.249	0.541
1164.999	670.577	80.007	19.995	103.831	20.119	-7.181	0.437
1165.499	670.880	80.008	19.994	103.829	20.118	-7.113	0.487
1165.999	671.122	80.007	19.995	103.828	20.118	-7.137	0.549
1166.499	671.389	80.008	19.994	103.828	20.117	-7.030	0.527
1166.999	671.672	80.007	19.995	103.826	20.115	-6.892	0.529
1167.499	671.915	80.008	19.994	103.826	20.118	-7.138	0.538
1167.999	672.140	80.009	19.995	103.825	20.117	-7.037	0.497
1168.499	672.427	80.008	19.993	103.825	20.115	-6.932	0.490
1168.999	672.698	80.009	19.994	103.826	20.117	-7.050	0.535
1169.499	672.943	80.008	19.995	103.826	20.114	-6.885	0.537
1169.999	673.195	80.009	19.995	103.827	20.115	-6.894	0.507
1170.499	673.474	80.009	19.995	103.827	20.116	-6.973	0.514
1170.999	673.686	80.007	19.995	103.827	20.114	-6.863	0.511
1171.499	673.988	80.009	19.995	103.826	20.118	-7.135	0.503
1171.999	674.229	80.009	19.995	103.826	20.114	-6.881	0.529
1172.499	674.525	80.009	19.995	103.826	20.115	-6.940	0.540
1172.999	674.796	80.010	19.995	103.826	20.117	-7.046	0.552
1173.499	675.019	80.008	19.995	103.826	20.118	-7.103	0.530
1173.999	675.292	80.009	19.996	103.826	20.116	-7.008	0.495
1174.499	675.555	80.010	19.995	103.827	20.116	-7.023	0.516
1174.999	675.828	80.010	19.995	103.830	20.119	-7.196	0.536
1175.499	676.074	80.009	19.995	103.831	20.117	-7.060	0.527
1175.999	676.319	80.009	19.994	103.833	20.116	-7.000	0.505
1176.499	676.568	80.009	19.995	103.835	20.116	-6.967	0.493
1176.999	676.809	80.008	19.995	103.837	20.115	-6.909	0.492
1177.499	677.096	80.009	19.996	103.833	20.117	-7.041	0.509
1177.999	677.339	80.008	19.994	103.833	20.117	-7.089	0.529
1178.499	677.630	80.009	19.995	103.831	20.116	-6.977	0.532
1178.999	677.841	80.010	19.995	103.828	20.116	-7.006	0.518
1179.499	678.138	80.009	19.995	103.826	20.120	-7.238	0.505
1179.999	678.381	80.008	19.995	103.826	20.119	-7.165	0.524
1180.499	678.662	80.008	19.995	103.827	20.118	-7.150	0.532
1180.999	678.888	80.007	19.995	103.827	20.117	-7.088	0.515
1181.499	679.281	80.009	19.995	103.827	20.117	-7.057	0.563
1181.999	679.429	80.007	19.995	103.828	20.114	-6.871	0.581
1182.499	679.687	80.008	19.995	103.829	20.114	-6.847	0.474
1182.999	679.938	80.007	19.994	103.831	20.116	-6.979	0.457
1183.499	680.207	80.006	19.995	103.832	20.119	-7.208	0.514
1183.999	680.420	80.006	19.997	103.831	20.117	-7.035	0.501
1184.499	680.723	80.006	19.995	103.830	20.115	-6.956	0.499
1184.999	680.981	80.007	19.998	103.833	20.117	-7.065	0.539
1185.499	681.231	80.006	19.997	103.839	20.114	-6.877	0.534
1185.999	681.533	80.007	19.996	103.841	20.115	-6.905	0.530
1186.499	681.776	80.007	19.996	103.847	20.115	-6.903	0.549
1186.999	682.033	80.006	19.995	103.850	20.115	-6.905	0.523
1187.499	682.294	80.006	19.997	103.847	20.119	-7.195	0.509
1187.999	682.574	80.006	19.996	103.840	20.117	-7.043	0.529
1188.499	682.809	80.007	19.996	103.837	20.115	-6.893	0.528
1188.999	683.117	80.008	19.994	103.833	20.117	-7.038	0.529
1189.499	683.363	80.007	19.995	103.830	20.118	-7.124	0.548
1189.999	683.589	80.006	19.996	103.830	20.119	-7.223	0.513
1190.499	683.921	80.008	19.995	103.835	20.119	-7.227	0.515
1190.999	684.115	80.007	19.994	103.839	20.117	-7.056	0.542
1191.499	684.383	80.006	19.995	103.839	20.115	-6.910	0.494
1191.999	684.627	80.006	19.994	103.841	20.118	-7.120	0.487
1192.499	684.909	80.006	19.995	103.844	20.116	-6.978	0.519
1192.999	685.211	80.007	19.994	103.840	20.115	-6.940	0.555
1193.500	685.474	80.006	19.994	103.837	20.113	-6.773	0.574
1194.000	685.731	80.007	19.994	103.836	20.115	-6.931	0.542
1194.499	685.970	80.006	19.994	103.833	20.117	-7.041	0.508
1194.999	686.216	80.007	19.993	103.830	20.115	-6.900	0.491
1195.499	686.485	80.007	19.996	103.830	20.114	-6.884	0.500
1195.999	686.741	80.008	19.994	103.830	20.117	-7.062	0.520
1196.499	687.005	80.007	19.995	103.829	20.120	-7.235	0.522
1196.999	687.264	80.007	19.995	103.829	20.118	-7.109	0.522
1197.499	687.550	80.006	19.995	103.830	20.118	-7.105	0.534
1197.999	687.778	80.008	19.994	103.831	20.116	-7.011	0.529
1198.499	688.004	80.006	19.993	103.832	20.118	-7.131	0.484
1198.999	688.242	80.006	19.994	103.835	20.115	-6.958	0.459
1199.500	688.507	80.006	19.993	103.838	20.117	-7.048	0.483
1200.001	688.792	80.006	19.994	103.838	20.118	-7.127	0.526
1200.500	689.062	80.007	19.994	103.838	20.120	-7.254	0.553
1200.999	689.306	80.007	19.993	103.837	20.120	-7.283	0.535
1201.499	689.615	80.006	19.994	103.835	20.119	-7.208	0.534
1201.999	689.839	80.007	19.993	103.830	20.118	-7.126	0.543
1202.499	690.087	80.007	19.993	103.830	20.121	-7.333	0.502
1202.999	690.367	80.008	19.994	103.828	20.117	-7.063	0.500
1203.499	690.605	80.006	19.994	103.825	20.118	-7.118	0.524
1203.999	690.901	80.006	19.994	103.826	20.118	-7.122	0.526
1204.499	691.139	80.006	19.994	103.828	20.118	-7.111	0.534
1204.999	691.356	80.008	19.994	103.827	20.117	-7.061	0.495
1205.499	691.632	80.007	19.994	103.829	20.117	-7.085	0.474
1205.999	691.911	80.007	19.994	103.834	20.119	-7.172	0.524
1206.499	692.164	80.007	19.994	103.840	20.117	-7.080	0.543
1206.999	692.379	80.007	19.994	103.848	20.120	-7.239	0.500
1207.500	692.652	80.007	19.994	103.854	20.117	-7.056	0.478
1208.000	692.890	80.007	19.993	103.855	20.116	-7.013	0.499
1208.499	693.205	80.007	19.993	103.853	20.117	-7.036	0.532
1208.999	693.444	80.006	19.995	103.846	20.120	-7.271	0.553
1209.499	693.670	80.007	19.994	103.836	20.113	-6.812	0.510
1209.999	693.937	80.005	19.995	103.828	20.115	-6.940	0.480
1210.499	694.186	80.006	19.994	103.828	20.117	-7.034	0.505
1210.999	694.449	80.007	19.995	103.827	20.120	-7.271	0.514
1211.499	694.698	80.006	19.993	103.827	20.117	-7.075	0.512
1211.999	694.978	80.006	19.995	103.830	20.117	-7.057	0.520
1212.499	695.250	80.006	19.993	103.832	20.117	-7.071	0.541
1212.999	695.499	80.006	19.994	103.832	20.119	-7.214	0.537
1213.499	695.751	80.007	19.995	103.832	20.114	-6.834	0.511
1213.999	696.000	80.004	19.993	103.832	20.115	-6.937	0.501
1214.499	696.277	80.006	19.995	103.832	20.119	-7.190	0.514
1214.999	696.533	80.007	19.993	103.832	20.115	-6.938	0.529
1215.499	696.799	80.006	19.994	103.833	20.115	-6.902	0.527
1215.999	697.017	80.006	19.995	103.832	20.115	-6.944	0.502
1216.499	697.233	80.006	19.994	103.833	20.114	-6.836	0.459
1216.999	697.565	80.005	19.996	103.833	20.116	-7.000	0.492
1217.500	697.770	80.005	19.994	103.832	20.115	-6.960	0.543
1218.000	698.062	80.005	19.994	103.830	20.116	-6.997	0.517
1218.499	698.317	80.004	19.994	103.830	20.116	-7.010	0.522
1218.999	698.562	80.005	19.995	103.831	20.115	-6.907	0.523
1219.499	698.836	80.006	19.993	103.832	20.115	-6.951	0.509
1219.999	699.045	80.006	19.995	103.833	20.118	-7.129	0.501
1220.499	699.284	80.006	19.994	103.835	20.117	-7.094	0.466
1220.999	699.553	80.007	19.994	103.835	20.116	-6.961	0.479
1221.499	699.829	80.006	19.994	103.839	20.117	-7.045	0.526
1221.999	700.052	80.007	19.993	103.840	20.114	-6.885	0.522
1222.499	700.329	80.006	19.994	103.841	20.114	-6.885	0.500
1222.999	700.582	80.006	19.994	103.844	20.116	-6.997	0.515
1223.499	700.843	80.007	19.993	103.844	20.120	-7.237	0.522
1223.999	701.095	80.005	19.995	103.840	20.118	-7.147	0.513
1224.499	701.382	80.008	19.994	103.839	20.118	-7.138	0.526
1224.999	701.620	80.006	19.993	103.837	20.116	-6.976	0.532
1225.499	701.869	80.007	19.995	103.833	20.119	-7.175	0.506
1225.999	702.120	80.006	19.994	103.833	20.119	-7.208	0.494
1226.499	702.392	80.008	19.994	103.834	20.118	-7.158	0.511
1226.999	702.662	80.008	19.994	103.839	20.116	-6.969	0.532
1227.499	702.837	80.009	19.994	103.845	20.118	-7.110	0.493
1227.999	703.164	80.009	19.994	103.852	20.113	-6.793	0.474
1228.499	703.409	80.008	19.993	103.859	20.118	-7.127	0.537
1229.000	703.662	80.008	19.994	103.864	20.118	-7.114	0.535
1229.500	703.906	80.009	19.994	103.866	20.118	-7.156	0.497
1229.999	704.154	80.008	19.993	103.866	20.116	-6.978	0.494
1230.499	704.417	80.008	19.993	103.863	20.116	-7.010	0.502
1230.999	704.692	80.009	19.994	103.857	20.115	-6.925	0.525
1231.499	704.955	80.008	19.993	103.849	20.114	-6.866	0.538
1231.999	705.177	80.009	19.994	103.841	20.117	-7.038	0.511
1232.499	705.465	80.009	19.994	103.834	20.115	-6.905	0.497
1232.999	705.702	80.008	19.994	103.829	20.118	-7.096	0.517
1233.499	705.989	80.009	19.994	103.827	20.117	-7.052	0.524
1233.999	706.203	80.010	19.994	103.827	20.118	-7.118	0.512
1234.499	706.500	80.009	19.993	103.827	20.113	-6.795	0.506
1234.999	706.742	80.008	19.994	103.827	20.114	-6.881	0.525
1235.499	706.996	80.009	19.996	103.827	20.119	-7.177	0.518
1235.999	707.249	80.009	19.994	103.828	20.118	-7.129	0.502
1236.499	707.472	80.009	19.995	103.828	20.116	-7.000	0.492
1236.999	707.769	80.009	19.994	103.830	20.117	-7.030	0.498
1237.499	708.024	80.008	19.993	103.829	20.116	-6.962	0.536
1237.999	708.282	80.009	19.994	103.828	20.114	-6.835	0.532
1238.499	708.516	80.008	19.993	103.826	20.116	-7.003	0.502
1238.999	708.758	80.009	19.995	103.826	20.116	-7.008	0.484
1239.500	709.038	80.007	19.994	103.825	20.116	-6.995	0.499
1240.000	709.273	80.007	19.994	103.825	20.112	-6.732	0.519
1240.499	709.535	80.008	19.995	103.827	20.116	-7.010	0.506
1240.999	709.808	80.007	19.995	103.827	20.116	-7.001	0.516
1241.500	710.050	80.007	19.995	103.828	20.116	-7.014	0.525
1242.000	710.319	80.007	19.995	103.828	20.112	-6.709	0.513
1242.499	710.574	80.008	19.996	103.830	20.114	-6.871	0.517
1242.999	710.829	80.007	19.995	103.834	20.111	-6.639	0.517
1243.499	711.070	80.007	19.994	103.835	20.112	-6.744	0.503
1243.999	711.330	80.006	19.996	103.835	20.115	-6.956	0.499
1244.499	711.597	80.008	19.996	103.838	20.115	-6.948	0.514
1244.999	711.875	80.007	19.996	103.835	20.116	-6.983	0.536
1245.500	712.096	80.008	19.996	103.832	20.117	-7.034	0.522
1246.000	712.404	80.008	19.996	103.832	20.117	-7.041	0.514
1246.499	712.653	80.006	19.995	103.830	20.116	-6.982	0.543
1246.999	712.914	80.007	19.996	103.827	20.118	-7.111	0.534
1247.499	713.203	80.008	19.994	103.827	20.119	-7.166	0.530
1247.999	713.437	80.008	19.995	103.827	20.118	-7.143	0.536
1248.500	713.660	80.008	19.995	103.829	20.115	-6.945	0.489
1249.000	713.922	80.009	19.995	103.832	20.116	-6.994	0.471
1249.500	714.187	80.010	19.995	103.833	20.120	-7.233	0.507
1250.000	714.445	80.008	19.995	103.834	20.117	-7.031	0.525
1250.499	714.737	80.008	19.995	103.833	20.116	-6.981	0.536
1251.000	714.936	80.009	19.994	103.831	20.117	-7.029	0.520
1251.500	715.240	80.009	19.994	103.829	20.114	-6.866	0.497
1251.999	715.499	80.009	19.995	103.831	20.113	-6.763	0.533
1252.499	715.775	80.009	19.995	103.833	20.116	-6.989	0.549
1252.999	716.017	80.008	19.994	103.836	20.115	-6.917	0.526
1253.499	716.235	80.009	19.993	103.839	20.117	-7.053	0.489
1253.999	716.562	80.008	19.993	103.843	20.115	-6.956	0.503
1254.499	716.823	80.008	19.993	103.847	20.114	-6.871	0.566
1254.999	717.047	80.011	19.994	103.848	20.116	-6.969	0.536
1255.499	717.292	80.010	19.995	103.845	20.116	-7.013	0.477
1255.999	717.531	80.009	19.993	103.843	20.113	-6.795	0.476
1256.499	717.790	80.011	19.994	103.838	20.116	-6.965	0.491
1256.999	718.032	80.009	19.995	103.832	20.114	-6.882	0.500
1257.499	718.319	80.009	19.994	103.828	20.113	-6.779	0.515
1257.999	718.568	80.009	19.993	103.828	20.112	-6.730	0.533
1258.499	718.836	80.009	19.995	103.826	20.116	-6.985	0.527
1258.999	719.072	80.009	19.995	103.823	20.116	-6.976	0.510
1259.499	719.352	80.009	19.995	103.821	20.114	-6.828	0.509
1259.999	719.611	80.009	19.994	103.817	20.115	-6.945	0.528
1260.499	719.880	80.006	19.994	103.816	20.113	-6.762	0.534
1261.000	720.145	80.008	19.994	103.817	20.112	-6.740	0.531
1261.500	720.421	80.008	19.995	103.820	20.113	-6.811	0.538
1261.999	720.672	80.008	19.995	103.823	20.113	-6.808	0.534
1262.499	720.922	80.007	19.994	103.827	20.116	-6.971	0.514
1262.999	721.180	80.006	19.992	103.828	20.114	-6.883	0.504
1263.499	721.428	80.006	19.995	103.829	20.116	-6.962	0.507
1263.999	721.710	80.005	19.994	103.823	20.113	-6.804	0.518
1264.499	721.937	80.007	19.995	103.822	20.114	-6.873	0.520
1264.999	722.170	80.006	19.995	103.822	20.115	-6.919	0.484
1265.499	722.421	80.005	19.994	103.823	20.116	-7.011	0.471
1265.999	722.722	80.007	19.995	103.825	20.115	-6.896	0.518
1266.499	722.969	80.007	19.994	103.831	20.115	-6.954	0.550
1266.999	723.249	80.006	19.995	103.830	20.116	-6.988	0.538
1267.499	723.496	80.006	19.995	103.825	20.115	-6.901	0.527
1267.999	723.755	80.005	19.995	103.822	20.118	-7.133	0.516
1268.499	724.017	80.006	19.995	103.820	20.114	-6.863	0.514
1268.999	724.280	80.005	19.996	103.819	20.116	-6.964	0.523
1269.500	724.531	80.005	19.995	103.821	20.117	-7.039	0.519
1270.000	724.818	80.006	19.995	103.826	20.115	-6.933	0.526
1270.499	725.049	80.004	19.996	103.828	20.120	-7.256	0.528
1270.999	725.314	80.005	19.996	103.829	20.117	-7.043	0.507
1271.499	725.579	80.005	19.993	103.831	20.113	-6.769	0.513
1271.999	725.828	80.006	19.995	103.832	20.117	-7.072	0.522
1272.499	726.072	80.006	19.995	103.831	20.115	-6.892	0.504
1272.999	726.339	80.005	19.995	103.831	20.118	-7.115	0.503
1273.500	726.615	80.005	19.995	103.830	20.117	-7.037	0.527
1274.000	726.902	80.005	19.995	103.828	20.119	-7.173	0.553
1274.499	727.156	80.006	19.995	103.825	20.114	-6.881	0.552
1274.999	727.364	80.006	19.994	103.824	20.118	-7.113	0.501
1275.499	727.695	80.007	19.995	103.822	20.116	-6.968	0.500
1275.999	727.906	80.006	19.996	103.822	20.118	-7.142	0.540
1276.500	728.150	80.005	19.995	103.824	20.117	-7.065	0.498
1277.000	728.451	80.006	19.994	103.826	20.118	-7.109	0.500
1277.499	728.702	80.006	19.994	103.829	20.119	-7.181	0.549
1277.999	728.958	80.006	19.993	103.830	20.116	-7.006	0.529
1278.499	729.201	80.005	19.995	103.831	20.119	-7.195	0.503
1279.000	729.445	80.007	19.995	103.830	20.120	-7.228	0.493
1279.500	729.741	80.006	19.994	103.830	20.118	-7.138	0.513
1279.999	729.983	80.006	19.994	103.832	20.118	-7.140	0.539
1280.499	730.231	80.006	19.993	103.832	20.117	-7.043	0.515
1280.999	730.517	80.006	19.995	103.831	20.118	-7.142	0.512
1281.499	730.764	80.007	19.994	103.831	20.118	-7.125	0.533
1281.999	731.005	80.006	19.995	103.832	20.121	-7.334	0.511
1282.499	731.271	80.006	19.994	103.830	20.115	-6.917	0.497
1283.000	731.532	80.006	19.993	103.831	20.115	-6.917	0.516
1283.500	731.787	80.007	19.994	103.833	20.119	-7.189	0.521
1283.999	732.042	80.005	19.994	103.833	20.120	-7.257	0.513
1284.499	732.285	80.007	19.994	103.834	20.117	-7.085	0.504
1284.999	732.521	80.006	19.994	103.834	20.117	-7.041	0.488
1285.499	732.799	80.006	19.994	103.833	20.119	-7.171	0.497
1285.999	733.037	80.008	19.994	103.833	20.116	-7.023	0.515
1286.499	733.276	80.006	19.994	103.834	20.116	-7.022	0.497
1286.999	733.554	80.008	19.994	103.833	20.117	-7.085	0.497
1287.499	733.823	80.007	19.993	103.834	20.117	-7.033	0.532
1287.999	734.056	80.007	19.994	103.833	20.115	-6.917	0.525
1288.499	734.332	80.007	19.994	103.833	20.116	-7.020	0.505
1288.999	734.579	80.007	19.994	103.832	20.117	-7.029	0.516
1289.499	734.837	80.007	19.994	103.832	20.116	-6.970	0.514
1289.999	735.067	80.007	19.994	103.831	20.115	-6.930	0.496
1290.499	735.302	80.008	19.994	103.831	20.119	-7.181	0.477
1291.000	735.526	80.006	19.994	103.830	20.118	-7.137	0.462
1291.500	735.790	80.007	19.995	103.830	20.117	-7.086	0.473
1291.999	736.024	80.007	19.994	103.828	20.114	-6.887	0.493
1292.499	736.310	80.007	19.994	103.826	20.117	-7.027	0.509
1292.999	736.559	80.005	19.994	103.822	20.119	-7.170	0.528
1293.499	736.795	80.007	19.994	103.818	20.120	-7.242	0.510
1293.999	737.023	80.006	19.994	103.818	20.117	-7.089	0.474
1294.499	737.266	80.008	19.994	103.819	20.120	-7.236	0.467
1294.999	737.531	80.007	19.994	103.822	20.117	-7.039	0.489
1295.499	737.763	80.005	19.994	103.826	20.119	-7.183	0.502
1295.999	737.992	80.007	19.995	103.830	20.116	-6.977	0.479
1296.499	738.226	80.006	19.994	103.829	20.117	-7.064	0.462
1296.999	738.474	80.006	19.994	103.829	20.118	-7.126	0.473
1297.499	738.698	80.006	19.994	103.828	20.118	-7.146	0.477
1297.999	738.970	80.006	19.994	103.827	20.118	-7.093	0.484
1298.499	739.206	80.006	19.994	103.825	20.118	-7.128	0.502
1298.999	739.441	80.006	19.995	103.825	20.118	-7.097	0.490
1299.499	739.697	80.006	19.995	103.818	20.117	-7.059	0.481
1299.999	739.914	80.007	19.995	103.813	20.118	-7.138	0.482
1300.499	740.140	80.008	19.995	103.813	20.118	-7.119	0.458
1300.999	740.389	80.007	19.996	103.814	20.118	-7.153	0.459
1301.499	740.637	80.006	19.994	103.813	20.118	-7.135	0.486
1301.999	740.851	80.007	19.994	103.817	20.117	-7.085	0.480
1302.499	741.110	80.006	19.995	103.815	20.122	-7.386	0.468
1302.999	741.360	80.007	19.994	103.814	20.118	-7.119	0.491
1303.499	741.581	80.007	19.993	103.815	20.124	-7.521	0.490
1303.999	741.824	80.008	19.995	103.816	20.119	-7.198	0.468
1304.499	742.078	80.007	19.996	103.821	20.122	-7.414	0.481
1304.999	742.300	80.007	19.996	103.830	20.120	-7.289	0.486
1305.499	742.550	80.007	19.995	103.836	20.121	-7.334	0.473
1305.999	742.793	80.007	19.993	103.836	20.120	-7.290	0.482
1306.499	743.069	80.008	19.994	103.835	20.118	-7.099	0.506
1306.999	743.259	80.007	19.995	103.829	20.121	-7.327	0.493
1307.499	743.530	80.008	19.994	103.820	20.118	-7.143	0.464
1307.999	743.743	80.007	19.995	103.814	20.118	-7.145	0.472
1308.499	743.998	80.008	19.994	103.811	20.116	-6.976	0.475
