Sample ID:	C:\MCC\MCC Cal\Test\Concrete_Block_MCC_30K_min_220224_R1.txt
Sample Weight (mg):	4.83
Heating Rate (C/s):	0.5
Combustor Temp (C):	900
N2 Flow Rate (cc/min):	80
O2 Flow Rate (cc/min):	20
Calibration File:	C:\MCC\MCC Cal\Coeff1 JN10440_30_210304.txt.txt
T Correction Coefficients:	0	1.024463	0
Time Shift (s):	14
*
Time (s)	Temperature (C)	N2 flow rate (cc/min)	O2 flow rate (cc/min)	Flow Rate (cc/min)	Oxygen (%)	HRR (W/g)	Heating rate (C/s)
0.000	115.107	80.005	19.994	103.856	20.048	-0.033	0.002
0.500	115.090	80.005	19.993	103.861	20.045	0.134	-0.005
1.000	115.108	80.005	19.993	103.867	20.047	0.059	-0.001
1.500	115.071	80.004	19.993	103.869	20.050	-0.170	-0.009
2.000	115.076	80.003	19.994	103.864	20.049	-0.090	-0.025
2.500	115.041	80.004	19.994	103.862	20.048	-0.037	-0.031
3.000	115.057	80.003	19.994	103.857	20.047	0.016	-0.025
3.500	115.054	80.004	19.993	103.856	20.049	-0.077	-0.003
4.000	115.097	80.006	19.993	103.854	20.047	0.029	0.027
4.500	115.066	80.004	19.993	103.852	20.046	0.077	0.026
5.000	115.077	80.005	19.993	103.852	20.048	-0.050	-0.005
5.500	115.080	80.004	19.994	103.856	20.050	-0.187	-0.003
6.000	115.072	80.005	19.993	103.856	20.048	-0.068	0.005
6.500	115.052	80.003	19.993	103.859	20.047	0.046	-0.016
7.000	115.093	80.005	19.993	103.863	20.048	-0.044	-0.004
7.500	115.081	80.004	19.993	103.865	20.045	0.141	0.024
8.000	115.062	80.004	19.993	103.862	20.044	0.255	-0.001
8.501	115.081	80.004	19.993	103.864	20.045	0.143	-0.015
9.001	115.058	80.004	19.993	103.863	20.045	0.150	-0.002
9.501	115.058	80.003	19.994	103.866	20.047	0.044	-0.014
10.000	115.061	80.004	19.994	103.867	20.045	0.189	-0.010
10.500	115.033	80.003	19.993	103.869	20.043	0.288	-0.011
11.000	115.043	80.005	19.992	103.871	20.046	0.068	-0.021
11.500	115.077	80.004	19.995	103.873	20.045	0.173	0.013
12.000	114.995	80.004	19.994	103.875	20.044	0.217	-0.002
12.500	115.018	80.004	19.994	103.875	20.043	0.283	-0.054
13.000	115.023	80.003	19.995	103.877	20.043	0.330	-0.015
13.501	115.035	80.004	19.994	103.877	20.046	0.079	0.023
14.001	115.043	80.004	19.994	103.878	20.043	0.318	0.019
14.500	115.013	80.005	19.996	103.879	20.044	0.220	-0.001
15.000	114.996	80.003	19.996	103.883	20.043	0.327	-0.035
15.500	115.020	80.004	19.997	103.889	20.042	0.376	-0.020
16.000	115.059	80.002	19.996	103.896	20.041	0.441	0.035
16.500	115.052	80.003	19.996	103.903	20.039	0.556	0.047
17.000	115.020	80.002	19.995	103.908	20.037	0.694	-0.003
17.500	115.083	80.003	19.994	103.912	20.035	0.826	-0.004
18.000	115.067	80.003	19.994	103.915	20.036	0.760	0.039
18.500	115.051	80.003	19.995	103.916	20.035	0.802	0.007
19.000	115.077	80.003	19.995	103.919	20.037	0.698	-0.011
19.500	115.079	80.003	19.995	103.926	20.032	1.012	0.019
20.000	115.028	80.002	19.995	103.934	20.033	1.001	-0.011
20.500	115.058	80.003	19.994	103.943	20.033	1.001	-0.035
21.000	115.068	80.004	19.996	103.955	20.033	0.951	0.010
21.500	115.115	80.002	19.995	103.969	20.030	1.153	0.048
22.000	115.084	80.002	19.994	103.977	20.029	1.210	0.037
22.500	115.119	80.001	19.995	103.985	20.028	1.335	0.011
23.000	115.161	80.002	19.995	103.992	20.025	1.530	0.041
23.500	115.153	80.002	19.994	103.997	20.025	1.484	0.055
24.000	115.174	80.003	19.995	104.004	20.027	1.397	0.023
24.500	115.225	80.002	19.994	104.010	20.020	1.847	0.043
25.000	115.282	80.003	19.995	104.016	20.024	1.590	0.090
25.500	115.271	80.003	19.994	104.018	20.023	1.625	0.077
26.000	115.308	80.001	19.995	104.016	20.022	1.732	0.036
26.500	115.312	80.005	19.995	104.013	20.020	1.820	0.033
27.000	115.360	80.004	19.995	104.013	20.020	1.847	0.047
27.500	115.407	80.002	19.994	104.012	20.023	1.651	0.074
28.000	115.427	80.004	19.994	104.018	20.019	1.904	0.081
28.500	115.459	80.005	19.995	104.026	20.019	1.945	0.060
29.000	115.496	80.002	19.993	104.030	20.015	2.161	0.061
29.500	115.567	80.005	19.993	104.031	20.013	2.323	0.089
30.000	115.584	80.004	19.994	104.034	20.018	1.978	0.098
30.500	115.635	80.005	19.994	104.039	20.015	2.189	0.078
31.000	115.696	80.004	19.994	104.046	20.015	2.149	0.090
31.500	115.697	80.006	19.993	104.054	20.014	2.272	0.087
32.000	115.750	80.006	19.993	104.061	20.014	2.231	0.058
32.501	115.814	80.006	19.993	104.065	20.013	2.315	0.086
33.001	115.859	80.005	19.993	104.062	20.011	2.470	0.113
33.500	115.975	80.006	19.993	104.057	20.014	2.240	0.135
34.000	116.027	80.006	19.994	104.050	20.011	2.459	0.164
34.500	116.104	80.006	19.994	104.042	20.012	2.363	0.149
35.001	116.161	80.007	19.993	104.039	20.014	2.264	0.131
35.501	116.222	80.007	19.992	104.040	20.014	2.268	0.126
36.000	116.296	80.006	19.993	104.041	20.013	2.327	0.127
36.500	116.359	80.005	19.993	104.043	20.016	2.143	0.136
37.000	116.462	80.006	19.994	104.045	20.014	2.219	0.152
37.500	116.448	80.004	19.994	104.044	20.011	2.466	0.127
38.001	116.576	80.006	19.993	104.045	20.014	2.257	0.101
38.501	116.650	80.006	19.993	104.048	20.011	2.444	0.158
39.001	116.715	80.006	19.994	104.048	20.011	2.441	0.171
39.501	116.767	80.005	19.995	104.048	20.012	2.367	0.128
40.000	116.867	80.004	19.992	104.055	20.014	2.228	0.134
40.500	116.974	80.005	19.995	104.058	20.013	2.290	0.179
41.000	117.061	80.004	19.994	104.060	20.013	2.318	0.201
41.500	117.147	80.005	19.995	104.064	20.013	2.307	0.184
42.000	117.211	80.007	19.995	104.065	20.012	2.413	0.161
42.500	117.282	80.005	19.995	104.060	20.014	2.272	0.142
43.000	117.385	80.004	19.994	104.052	20.012	2.367	0.155
43.500	117.464	80.005	19.994	104.045	20.012	2.408	0.178
44.000	117.580	80.006	19.994	104.039	20.012	2.408	0.188
44.500	117.674	80.005	19.993	104.036	20.011	2.417	0.203
45.000	117.756	80.006	19.993	104.042	20.015	2.206	0.194
45.500	117.849	80.007	19.994	104.049	20.013	2.288	0.176
46.000	117.908	80.006	19.993	104.056	20.012	2.382	0.163
46.500	118.043	80.005	19.994	104.061	20.015	2.186	0.172
47.000	118.140	80.004	19.994	104.064	20.014	2.268	0.213
47.500	118.220	80.004	19.994	104.064	20.014	2.266	0.205
48.000	118.300	80.004	19.993	104.064	20.010	2.516	0.169
48.500	118.469	80.005	19.994	104.065	20.014	2.235	0.205
49.000	118.613	80.005	19.994	104.066	20.011	2.432	0.281
49.500	118.634	80.005	19.994	104.065	20.015	2.211	0.239
50.000	118.769	80.005	19.995	104.065	20.012	2.355	0.160
50.500	118.870	80.005	19.994	104.062	20.014	2.254	0.196
51.000	119.012	80.005	19.993	104.061	20.012	2.413	0.239
51.500	119.123	80.005	19.994	104.063	20.012	2.375	0.248
52.000	119.227	80.006	19.993	104.066	20.012	2.379	0.234
52.501	119.318	80.007	19.993	104.067	20.012	2.351	0.206
53.001	119.461	80.006	19.993	104.069	20.009	2.584	0.215
53.500	119.565	80.006	19.992	104.070	20.012	2.403	0.240
54.000	119.632	80.007	19.994	104.069	20.009	2.577	0.208
54.500	119.774	80.007	19.992	104.069	20.009	2.553	0.190
55.000	119.910	80.007	19.994	104.069	20.008	2.621	0.244
55.500	120.005	80.006	19.994	104.069	20.012	2.416	0.255
56.000	120.133	80.007	19.994	104.069	20.009	2.587	0.227
56.500	120.247	80.008	19.993	104.069	20.012	2.368	0.233
57.000	120.340	80.007	19.993	104.069	20.007	2.703	0.225
57.500	120.495	80.008	19.993	104.070	20.009	2.609	0.228
58.000	120.595	80.007	19.993	104.070	20.007	2.728	0.251
58.500	120.718	80.007	19.993	104.069	20.009	2.559	0.239
59.000	120.878	80.007	19.992	104.073	20.010	2.544	0.253
59.500	121.044	80.007	19.993	104.073	20.006	2.754	0.305
60.000	121.169	80.007	19.993	104.073	20.010	2.543	0.308
60.500	121.275	80.006	19.993	104.075	20.008	2.644	0.261
61.000	121.438	80.007	19.994	104.075	20.008	2.620	0.250
61.500	121.552	80.007	19.993	104.072	20.005	2.886	0.273
62.000	121.701	80.007	19.993	104.072	20.003	2.969	0.270
62.500	121.777	80.007	19.993	104.074	20.004	2.914	0.244
63.000	121.955	80.006	19.992	104.072	20.008	2.668	0.240
63.500	122.125	80.007	19.992	104.074	20.004	2.943	0.301
64.000	122.211	80.006	19.992	104.074	20.006	2.756	0.302
64.500	122.391	80.007	19.993	104.078	20.004	2.905	0.261
65.000	122.502	80.005	19.993	104.083	20.002	3.052	0.279
65.500	122.672	80.006	19.993	104.088	20.006	2.800	0.286
66.000	122.769	80.006	19.993	104.093	20.005	2.877	0.274
66.500	122.940	80.005	19.992	104.099	20.005	2.853	0.267
67.000	123.067	80.005	19.993	104.100	20.008	2.627	0.283
67.500	123.217	80.004	19.993	104.100	20.004	2.931	0.288
68.000	123.331	80.005	19.992	104.102	20.000	3.168	0.271
68.500	123.561	80.004	19.993	104.103	20.003	2.986	0.304
69.000	123.664	80.004	19.994	104.103	20.004	2.923	0.338
69.500	123.808	80.006	19.993	104.102	20.003	3.004	0.290
70.000	124.004	80.003	19.993	104.099	20.003	2.986	0.293
70.500	124.128	80.005	19.993	104.096	20.003	3.015	0.330
71.000	124.279	80.003	19.994	104.096	20.000	3.171	0.297
71.500	124.412	80.004	19.994	104.097	20.003	2.989	0.279
72.000	124.582	80.005	19.992	104.100	20.002	3.054	0.293
72.500	124.729	80.004	19.993	104.106	20.001	3.096	0.310
73.000	124.893	80.004	19.993	104.110	20.004	2.899	0.314
73.500	125.064	80.004	19.994	104.112	20.001	3.100	0.323
74.000	125.215	80.004	19.993	104.112	20.000	3.195	0.328
74.500	125.407	80.003	19.993	104.111	20.000	3.158	0.332
75.000	125.519	80.003	19.994	104.111	20.000	3.193	0.323
75.501	125.676	80.004	19.992	104.111	20.000	3.204	0.286
76.001	125.848	80.005	19.994	104.110	20.001	3.140	0.299
76.501	126.030	80.004	19.993	104.109	20.001	3.140	0.342
77.000	126.161	80.004	19.994	104.109	20.002	3.035	0.334
77.500	126.353	80.004	19.993	104.109	20.002	3.046	0.318
78.000	126.522	80.004	19.994	104.110	20.000	3.193	0.342
78.500	126.688	80.004	19.993	104.110	20.000	3.179	0.348
79.000	126.846	80.004	19.992	104.110	20.002	3.033	0.329
79.500	127.058	80.004	19.992	104.110	20.001	3.103	0.346
80.001	127.213	80.004	19.992	104.110	20.001	3.133	0.368
80.501	127.398	80.004	19.994	104.109	20.003	2.991	0.354
81.001	127.557	80.006	19.992	104.108	19.998	3.307	0.342
81.501	127.713	80.005	19.993	104.108	19.999	3.245	0.330
82.001	127.931	80.004	19.993	104.108	20.002	3.052	0.345
82.500	128.047	80.004	19.994	104.107	20.000	3.164	0.354
83.000	128.272	80.004	19.994	104.105	20.001	3.100	0.337
83.500	128.433	80.005	19.992	104.108	20.003	3.004	0.364
84.000	128.606	80.003	19.994	104.108	20.000	3.162	0.360
84.500	128.791	80.005	19.993	104.108	19.999	3.239	0.346
85.000	128.981	80.004	19.993	104.109	20.003	3.010	0.366
85.500	129.193	80.005	19.993	104.111	20.001	3.118	0.388
86.000	129.355	80.004	19.994	104.110	20.005	2.870	0.389
86.501	129.546	80.004	19.993	104.111	20.003	2.997	0.364
87.001	129.763	80.004	19.994	104.111	20.002	3.063	0.380
87.500	129.910	80.004	19.995	104.111	20.003	2.999	0.386
88.000	130.081	80.005	19.993	104.110	20.003	2.958	0.341
88.500	130.251	80.004	19.994	104.109	20.003	2.997	0.329
89.000	130.465	80.005	19.993	104.108	20.004	2.921	0.362
89.500	130.656	80.004	19.993	104.108	20.003	2.969	0.395
90.000	130.871	80.004	19.994	104.107	20.003	3.008	0.406
90.500	131.019	80.005	19.994	104.107	19.999	3.250	0.384
91.001	131.245	80.003	19.993	104.107	20.001	3.125	0.369
91.501	131.418	80.004	19.994	104.108	20.001	3.147	0.387
92.000	131.587	80.004	19.994	104.109	20.002	3.067	0.370
92.501	131.801	80.003	19.994	104.111	20.002	3.035	0.362
93.001	131.990	80.004	19.993	104.111	20.002	3.059	0.393
93.501	132.153	80.004	19.993	104.112	20.002	3.037	0.378
94.000	132.374	80.004	19.993	104.112	20.002	3.079	0.368
94.500	132.577	80.004	19.993	104.112	20.003	2.997	0.404
95.001	132.752	80.004	19.993	104.112	20.003	2.973	0.401
95.501	132.944	80.004	19.994	104.112	20.005	2.857	0.372
96.000	133.192	80.005	19.994	104.112	20.005	2.846	0.403
96.500	133.357	80.005	19.993	104.112	20.005	2.883	0.426
97.000	133.558	80.004	19.993	104.111	20.003	2.973	0.390
97.500	133.777	80.005	19.994	104.111	20.002	3.041	0.393
98.000	133.959	80.005	19.992	104.111	20.004	2.927	0.411
98.500	134.140	80.004	19.994	104.110	20.004	2.943	0.382
99.000	134.338	80.003	19.992	104.110	20.002	3.028	0.371
99.500	134.550	80.003	19.994	104.110	20.003	3.013	0.395
100.000	134.791	80.003	19.993	104.110	20.005	2.853	0.431
100.500	134.951	80.004	19.996	104.110	20.000	3.158	0.427
101.000	135.141	80.004	19.994	104.109	20.004	2.945	0.376
101.500	135.337	80.003	19.994	104.109	20.005	2.879	0.368
102.000	135.545	80.003	19.994	104.109	20.003	2.997	0.395
102.500	135.771	80.004	19.994	104.109	20.000	3.188	0.419
103.001	135.972	80.003	19.993	104.109	20.004	2.905	0.430
103.501	136.181	80.003	19.994	104.109	20.005	2.833	0.418
104.000	136.396	80.005	19.994	104.109	20.005	2.826	0.417
104.500	136.571	80.004	19.994	104.109	20.005	2.829	0.408
105.000	136.765	80.005	19.994	104.108	20.004	2.897	0.379
105.500	136.966	80.004	19.994	104.108	20.004	2.896	0.382
106.001	137.157	80.004	19.994	104.108	20.005	2.879	0.394
106.501	137.425	80.004	19.993	104.109	20.002	3.044	0.425
107.000	137.611	80.004	19.995	104.109	20.003	2.978	0.456
107.500	137.850	80.003	19.994	104.109	20.004	2.897	0.439
108.000	138.051	80.003	19.995	104.109	20.001	3.125	0.433
108.500	138.288	80.004	19.994	104.105	20.003	2.978	0.439
109.001	138.484	80.004	19.995	104.104	20.002	3.059	0.436
109.501	138.671	80.005	19.994	104.104	20.004	2.921	0.408
110.000	138.916	80.004	19.994	104.104	20.002	3.052	0.407
110.500	139.096	80.005	19.993	104.105	20.003	3.004	0.428
111.000	139.357	80.005	19.994	104.109	20.004	2.940	0.433
111.500	139.529	80.005	19.993	104.110	20.004	2.896	0.437
112.000	139.724	80.005	19.994	104.109	20.003	3.011	0.400
112.501	139.937	80.005	19.995	104.109	20.004	2.916	0.388
113.001	140.183	80.005	19.995	104.108	20.002	3.070	0.434
113.500	140.401	80.005	19.993	104.107	20.005	2.874	0.462
114.001	140.632	80.005	19.994	104.107	20.002	3.072	0.456
114.501	140.847	80.003	19.996	104.107	20.002	3.065	0.447
115.001	141.025	80.006	19.995	104.107	20.005	2.872	0.420
115.501	141.254	80.006	19.994	104.107	20.003	2.991	0.400
116.000	141.488	80.006	19.995	104.107	20.004	2.894	0.435
116.501	141.700	80.004	19.995	104.108	20.007	2.743	0.454
117.001	141.928	80.004	19.994	104.108	20.000	3.215	0.443
117.501	142.144	80.005	19.995	104.108	20.004	2.949	0.442
118.001	142.333	80.005	19.994	104.108	20.001	3.131	0.424
118.500	142.532	80.006	19.995	104.107	20.004	2.931	0.397
119.000	142.791	80.004	19.995	104.107	20.001	3.107	0.423
119.500	143.015	80.004	19.994	104.106	20.002	3.037	0.471
120.000	143.218	80.004	19.994	104.108	20.003	2.964	0.455
120.500	143.477	80.005	19.994	104.109	20.001	3.103	0.444
121.001	143.691	80.005	19.994	104.109	20.002	3.046	0.467
121.501	143.916	80.005	19.994	104.109	20.002	3.057	0.456
122.000	144.117	80.005	19.994	104.109	20.004	2.944	0.433
122.500	144.374	80.004	19.994	104.107	20.004	2.949	0.442
123.000	144.591	80.004	19.993	104.108	20.002	3.074	0.466
123.500	144.821	80.004	19.994	104.109	20.003	2.967	0.460
124.001	145.040	80.006	19.993	104.108	20.003	2.993	0.448
124.501	145.280	80.005	19.995	104.109	20.001	3.144	0.454
125.001	145.521	80.005	19.993	104.109	20.003	2.980	0.470
125.500	145.756	80.005	19.993	104.109	20.003	2.965	0.479
126.000	145.965	80.005	19.993	104.109	20.003	2.962	0.460
126.500	146.185	80.007	19.994	104.109	20.002	3.057	0.437
127.000	146.425	80.005	19.994	104.109	20.003	2.975	0.445
127.500	146.629	80.006	19.992	104.110	20.002	3.070	0.452
128.000	146.842	80.006	19.993	104.109	20.002	3.048	0.430
128.500	147.134	80.006	19.993	104.110	20.003	3.015	0.461
129.000	147.330	80.006	19.993	104.111	20.003	2.977	0.496
129.500	147.577	80.005	19.994	104.114	19.999	3.245	0.466
130.000	147.797	80.006	19.992	104.113	19.999	3.230	0.455
130.500	148.021	80.006	19.993	104.114	20.002	3.037	0.455
131.000	148.279	80.005	19.993	104.114	20.002	3.067	0.463
131.500	148.506	80.006	19.993	104.112	20.003	3.017	0.484
132.000	148.751	80.006	19.994	104.112	20.000	3.157	0.479
132.500	148.943	80.005	19.993	104.113	20.000	3.197	0.454
133.000	149.187	80.005	19.993	104.113	20.005	2.855	0.436
133.500	149.430	80.005	19.993	104.113	20.002	3.061	0.462
134.000	149.671	80.006	19.993	104.114	20.001	3.102	0.486
134.500	149.904	80.006	19.993	104.112	20.002	3.035	0.479
135.000	150.125	80.007	19.992	104.111	20.004	2.942	0.464
135.500	150.345	80.006	19.993	104.110	20.001	3.155	0.448
136.000	150.624	80.006	19.993	104.111	20.004	2.945	0.470
136.500	150.839	80.006	19.993	104.110	20.004	2.951	0.496
137.000	151.092	80.007	19.994	104.112	20.004	2.916	0.481
137.500	151.313	80.007	19.993	104.114	20.000	3.217	0.471
138.000	151.534	80.007	19.993	104.116	20.004	2.949	0.458
138.500	151.797	80.007	19.993	104.118	20.004	2.920	0.463
139.000	151.980	80.005	19.993	104.118	20.005	2.877	0.465
139.500	152.255	80.007	19.993	104.117	20.002	3.028	0.452
140.000	152.522	80.006	19.993	104.117	20.008	2.673	0.500
140.500	152.720	80.006	19.993	104.117	20.006	2.758	0.504
141.000	152.975	80.007	19.992	104.116	20.006	2.813	0.459
141.500	153.216	80.006	19.994	104.117	20.004	2.905	0.474
142.000	153.439	80.006	19.994	104.116	20.001	3.100	0.480
142.500	153.671	80.007	19.993	104.114	20.002	3.054	0.460
143.000	153.903	80.006	19.993	104.113	20.002	3.074	0.460
143.500	154.156	80.006	19.993	104.113	20.002	3.078	0.474
144.000	154.394	80.006	19.994	104.111	20.000	3.188	0.488
144.500	154.607	80.006	19.993	104.112	20.002	3.089	0.471
145.000	154.906	80.005	19.994	104.112	19.999	3.243	0.482
145.500	155.114	80.006	19.993	104.112	20.003	2.964	0.509
146.000	155.353	80.007	19.992	104.111	20.002	3.057	0.477
146.500	155.603	80.006	19.994	104.111	20.003	2.993	0.468
147.000	155.834	80.006	19.992	104.111	20.006	2.767	0.485
147.500	156.077	80.005	19.993	104.111	20.002	3.035	0.478
148.000	156.346	80.004	19.994	104.111	20.002	3.026	0.493
148.500	156.568	80.004	19.993	104.111	20.004	2.934	0.501
149.000	156.837	80.005	19.993	104.111	20.003	3.017	0.491
149.500	157.065	80.004	19.994	104.111	20.004	2.910	0.494
150.000	157.298	80.004	19.993	104.112	20.006	2.793	0.479
150.500	157.543	80.006	19.993	104.112	20.002	3.050	0.469
151.000	157.785	80.003	19.994	104.111	20.004	2.903	0.482
151.500	158.054	80.004	19.993	104.111	20.003	3.004	0.499
152.000	158.280	80.003	19.993	104.111	20.001	3.147	0.503
152.500	158.556	80.003	19.993	104.111	20.006	2.811	0.498
153.000	158.771	80.003	19.994	104.111	20.005	2.887	0.497
153.500	159.047	80.003	19.994	104.111	20.007	2.719	0.491
154.000	159.290	80.004	19.993	104.112	20.006	2.754	0.505
154.500	159.543	80.004	19.994	104.113	20.004	2.901	0.508
155.000	159.736	80.004	19.994	104.113	20.004	2.921	0.471
155.500	160.014	80.004	19.993	104.113	20.003	2.973	0.458
156.000	160.296	80.004	19.994	104.113	20.004	2.932	0.516
156.500	160.492	80.004	19.994	104.113	20.007	2.706	0.519
157.000	160.705	80.005	19.993	104.113	20.007	2.747	0.443
157.500	160.996	80.003	19.993	104.112	20.007	2.710	0.457
158.000	161.221	80.003	19.993	104.113	20.005	2.846	0.510
158.500	161.494	80.005	19.992	104.113	20.005	2.857	0.507
159.000	161.713	80.004	19.993	104.112	20.004	2.943	0.495
159.501	161.984	80.004	19.993	104.113	20.007	2.739	0.491
160.001	162.228	80.003	19.992	104.113	20.007	2.692	0.502
160.500	162.489	80.004	19.993	104.113	20.009	2.581	0.510
161.000	162.786	80.003	19.994	104.114	20.007	2.745	0.532
161.500	163.000	80.004	19.993	104.114	20.007	2.693	0.535
162.000	163.223	80.005	19.994	104.114	20.005	2.861	0.474
162.500	163.496	80.005	19.994	104.114	20.007	2.703	0.466
163.001	163.742	80.003	19.994	104.113	20.006	2.783	0.507
163.500	163.992	80.004	19.994	104.112	20.005	2.848	0.508
164.000	164.268	80.006	19.993	104.111	20.006	2.771	0.511
164.501	164.541	80.003	19.994	104.110	20.008	2.664	0.538
165.000	164.772	80.006	19.993	104.110	20.005	2.829	0.527
165.500	165.026	80.004	19.993	104.109	20.008	2.647	0.494
166.000	165.291	80.007	19.992	104.109	20.006	2.765	0.501
166.500	165.524	80.004	19.992	104.109	20.008	2.653	0.509
167.000	165.756	80.005	19.993	104.106	20.006	2.789	0.482
167.500	166.025	80.005	19.993	104.106	20.006	2.802	0.483
168.000	166.303	80.005	19.993	104.105	20.007	2.697	0.524
168.500	166.531	80.004	19.993	104.105	20.007	2.726	0.526
169.000	166.835	80.004	19.994	104.105	20.006	2.811	0.518
169.500	167.064	80.005	19.993	104.107	20.006	2.780	0.532
170.000	167.327	80.004	19.993	104.107	20.008	2.684	0.513
170.500	167.590	80.006	19.994	104.107	20.007	2.723	0.509
171.000	167.838	80.005	19.993	104.107	20.008	2.647	0.519
171.500	168.113	80.006	19.994	104.107	20.006	2.789	0.517
172.001	168.357	80.004	19.994	104.107	20.006	2.809	0.521
172.501	168.565	80.004	19.994	104.104	20.006	2.789	0.485
173.000	168.805	80.004	19.992	104.102	20.007	2.688	0.450
173.500	169.056	80.004	19.993	104.102	20.009	2.563	0.470
174.000	169.378	80.004	19.994	104.102	20.006	2.761	0.532
174.500	169.629	80.004	19.994	104.102	20.008	2.636	0.573
175.000	169.895	80.004	19.994	104.104	20.009	2.552	0.545
175.500	170.126	80.005	19.994	104.104	20.009	2.576	0.507
176.000	170.380	80.004	19.994	104.101	20.009	2.583	0.491
176.500	170.605	80.002	19.995	104.101	20.008	2.654	0.482
177.000	170.866	80.004	19.994	104.098	20.008	2.620	0.482
177.500	171.152	80.004	19.994	104.094	20.008	2.625	0.516
178.000	171.381	80.004	19.994	104.092	20.011	2.450	0.531
178.500	171.594	80.004	19.995	104.093	20.011	2.419	0.479
179.000	171.866	80.004	19.994	104.095	20.012	2.377	0.463
179.500	172.145	80.003	19.993	104.097	20.012	2.412	0.518
180.000	172.392	80.003	19.994	104.100	20.009	2.618	0.538
180.500	172.664	80.005	19.993	104.099	20.011	2.473	0.522
181.000	172.914	80.004	19.993	104.100	20.007	2.693	0.520
181.500	173.148	80.004	19.994	104.098	20.011	2.467	0.503
182.000	173.396	80.004	19.993	104.098	20.013	2.285	0.484
182.500	173.646	80.005	19.993	104.097	20.013	2.337	0.490
183.000	173.888	80.004	19.995	104.095	20.011	2.430	0.495
183.500	174.199	80.002	19.994	104.094	20.014	2.278	0.522
184.000	174.428	80.004	19.994	104.094	20.014	2.248	0.546
184.500	174.681	80.002	19.995	104.094	20.012	2.410	0.511
185.000	174.944	80.003	19.995	104.096	20.015	2.206	0.499
185.500	175.186	80.005	19.994	104.098	20.011	2.423	0.510
186.000	175.451	80.003	19.993	104.097	20.012	2.408	0.506
186.500	175.734	80.005	19.995	104.095	20.011	2.425	0.528
187.000	175.971	80.004	19.995	104.095	20.012	2.377	0.534
187.500	176.214	80.004	19.993	104.090	20.012	2.403	0.500
188.000	176.456	80.003	19.995	104.088	20.010	2.538	0.483
188.500	176.753	80.005	19.993	104.087	20.008	2.660	0.512
189.000	176.960	80.005	19.994	104.086	20.011	2.450	0.521
189.500	177.228	80.004	19.996	104.082	20.014	2.254	0.489
190.000	177.535	80.004	19.995	104.086	20.015	2.175	0.525
190.500	177.749	80.005	19.994	104.086	20.015	2.178	0.548
191.000	177.992	80.006	19.994	104.085	20.011	2.446	0.489
191.500	178.266	80.005	19.994	104.087	20.015	2.191	0.487
192.000	178.517	80.005	19.994	104.090	20.014	2.239	0.521
192.500	178.785	80.005	19.993	104.091	20.014	2.263	0.522
193.000	178.998	80.005	19.994	104.095	20.012	2.406	0.500
193.500	179.258	80.005	19.994	104.093	20.012	2.373	0.477
194.000	179.527	80.005	19.994	104.087	20.013	2.287	0.501
194.500	179.778	80.004	19.994	104.083	20.014	2.246	0.525
195.000	180.050	80.006	19.994	104.077	20.013	2.342	0.522
195.500	180.326	80.005	19.993	104.074	20.016	2.087	0.535
196.000	180.569	80.006	19.993	104.075	20.016	2.122	0.533
196.500	180.824	80.006	19.995	104.076	20.014	2.268	0.509
197.000	181.026	80.006	19.992	104.081	20.010	2.491	0.478
197.501	181.312	80.006	19.993	104.083	20.017	2.028	0.472
198.000	181.603	80.005	19.993	104.082	20.018	1.997	0.532
198.500	181.844	80.006	19.994	104.080	20.017	2.041	0.554
199.000	182.082	80.006	19.993	104.080	20.015	2.173	0.505
199.500	182.322	80.005	19.994	104.074	20.013	2.325	0.478
200.000	182.604	80.005	19.994	104.073	20.016	2.121	0.500
200.500	182.879	80.004	19.994	104.071	20.016	2.134	0.540
201.000	183.133	80.005	19.993	104.072	20.013	2.301	0.543
201.500	183.373	80.005	19.993	104.071	20.015	2.193	0.511
202.000	183.623	80.004	19.993	104.072	20.015	2.184	0.491
202.500	183.818	80.004	19.994	104.072	20.014	2.266	0.468
203.000	184.091	80.004	19.994	104.073	20.011	2.419	0.457
203.500	184.420	80.003	19.995	104.073	20.015	2.202	0.535
204.000	184.635	80.004	19.993	104.074	20.016	2.096	0.573
204.500	184.899	80.006	19.993	104.074	20.014	2.226	0.512
205.000	185.153	80.005	19.995	104.073	20.012	2.351	0.499
205.501	185.392	80.004	19.994	104.073	20.015	2.184	0.506
206.000	185.670	80.005	19.995	104.072	20.014	2.230	0.505
206.500	185.875	80.005	19.994	104.074	20.014	2.246	0.500
207.000	186.226	80.004	19.995	104.079	20.015	2.147	0.520
207.500	186.443	80.003	19.995	104.080	20.013	2.303	0.562
208.001	186.702	80.004	19.995	104.080	20.014	2.250	0.522
208.500	186.933	80.003	19.994	104.080	20.017	2.033	0.483
209.000	187.203	80.004	19.995	104.078	20.012	2.351	0.495
209.500	187.472	80.003	19.995	104.073	20.015	2.162	0.520
210.000	187.654	80.005	19.994	104.072	20.016	2.114	0.495
210.500	187.986	80.005	19.995	104.072	20.016	2.107	0.483
211.000	188.227	80.003	19.995	104.071	20.015	2.165	0.543
211.500	188.486	80.004	19.995	104.071	20.019	1.905	0.536
212.000	188.727	80.005	19.995	104.071	20.018	1.982	0.500
212.500	188.964	80.004	19.995	104.071	20.018	1.996	0.489
213.000	189.246	80.003	19.996	104.071	20.016	2.112	0.499
213.500	189.462	80.005	19.994	104.071	20.014	2.215	0.509
214.000	189.713	80.003	19.994	104.070	20.014	2.277	0.483
214.500	189.967	80.004	19.995	104.070	20.018	2.000	0.486
215.000	190.212	80.004	19.993	104.070	20.015	2.175	0.502
215.500	190.484	80.005	19.993	104.071	20.015	2.164	0.508
216.000	190.730	80.005	19.994	104.071	20.019	1.916	0.517
216.500	190.951	80.006	19.993	104.071	20.022	1.726	0.493
217.000	191.232	80.005	19.993	104.071	20.017	2.026	0.484
217.500	191.485	80.006	19.994	104.071	20.018	1.962	0.518
218.000	191.721	80.006	19.994	104.070	20.018	2.009	0.511
218.500	191.996	80.005	19.994	104.070	20.020	1.875	0.500
219.000	192.230	80.005	19.994	104.070	20.017	2.035	0.510
219.500	192.463	80.005	19.994	104.070	20.019	1.917	0.488
220.000	192.733	80.005	19.991	104.071	20.018	1.974	0.485
220.500	192.961	80.007	19.994	104.071	20.016	2.081	0.500
221.000	193.211	80.006	19.993	104.073	20.017	2.024	0.488
221.500	193.481	80.006	19.994	104.073	20.018	1.994	0.500
222.000	193.717	80.006	19.994	104.074	20.017	2.046	0.513
222.500	193.957	80.007	19.993	104.073	20.017	2.033	0.491
223.000	194.224	80.006	19.994	104.073	20.018	2.005	0.491
223.500	194.454	80.007	19.994	104.070	20.014	2.218	0.502
224.000	194.701	80.006	19.993	104.071	20.021	1.789	0.487
224.500	194.947	80.006	19.993	104.070	20.021	1.800	0.485
225.000	195.181	80.006	19.993	104.071	20.021	1.761	0.487
225.500	195.430	80.006	19.993	104.070	20.020	1.875	0.482
226.000	195.669	80.007	19.993	104.071	20.016	2.110	0.486
226.500	195.930	80.006	19.994	104.070	20.018	1.965	0.494
227.000	196.183	80.006	19.993	104.070	20.017	2.057	0.507
227.500	196.421	80.005	19.993	104.070	20.019	1.930	0.502
228.000	196.667	80.006	19.993	104.071	20.019	1.937	0.487
228.500	196.901	80.005	19.993	104.071	20.019	1.910	0.482
229.000	197.158	80.006	19.993	104.070	20.016	2.095	0.485
229.500	197.360	80.005	19.994	104.069	20.018	1.969	0.475
230.000	197.668	80.005	19.994	104.068	20.019	1.914	0.485
230.500	197.928	80.003	19.993	104.066	20.017	2.062	0.539
231.000	198.134	80.005	19.994	104.061	20.020	1.816	0.516
231.500	198.385	80.004	19.994	104.059	20.017	2.015	0.462
232.000	198.603	80.005	19.993	104.057	20.022	1.688	0.463
232.500	198.872	80.004	19.994	104.058	20.023	1.673	0.477
233.000	199.111	80.004	19.994	104.057	20.021	1.788	0.497
233.500	199.391	80.004	19.994	104.056	20.022	1.728	0.514
234.000	199.611	80.003	19.993	104.055	20.020	1.844	0.510
234.500	199.873	80.005	19.996	104.056	20.018	2.001	0.491
235.000	200.064	80.005	19.993	104.056	20.017	2.031	0.467
235.500	200.341	80.005	19.994	104.059	20.021	1.761	0.461
236.000	200.598	80.004	19.995	104.064	20.019	1.932	0.501
236.500	200.789	80.004	19.993	104.067	20.023	1.675	0.491
237.000	201.068	80.004	19.995	104.066	20.020	1.849	0.459
237.500	201.303	80.004	19.993	104.064	20.018	1.967	0.492
238.000	201.579	80.004	19.993	104.064	20.022	1.733	0.512
238.500	201.834	80.004	19.994	104.062	20.019	1.943	0.521
239.000	202.070	80.005	19.992	104.060	20.017	2.016	0.511
239.500	202.297	80.004	19.994	104.059	20.017	2.016	0.477
240.000	202.561	80.003	19.994	104.058	20.018	1.978	0.477
240.500	202.779	80.004	19.993	104.055	20.017	2.049	0.486
241.000	203.038	80.005	19.993	104.056	20.022	1.731	0.480
241.500	203.253	80.004	19.993	104.057	20.020	1.876	0.476
242.000	203.542	80.005	19.994	104.057	20.021	1.807	0.489
242.500	203.774	80.003	19.993	104.054	20.020	1.858	0.512
243.000	204.006	80.003	19.994	104.052	20.019	1.937	0.492
243.500	204.246	80.005	19.993	104.047	20.020	1.871	0.469
244.000	204.482	80.003	19.994	104.045	20.019	1.899	0.474
244.500	204.730	80.005	19.993	104.041	20.022	1.713	0.480
245.000	204.980	80.004	19.994	104.042	20.018	1.948	0.491
245.500	205.191	80.005	19.993	104.046	20.020	1.825	0.480
246.000	205.429	80.005	19.993	104.053	20.019	1.908	0.455
246.500	205.711	80.004	19.994	104.056	20.021	1.798	0.485
247.000	205.987	80.004	19.993	104.059	20.018	2.007	0.539
247.500	206.217	80.004	19.993	104.060	20.017	2.062	0.532
248.000	206.456	80.005	19.994	104.058	20.017	2.018	0.487
248.500	206.680	80.005	19.993	104.052	20.019	1.888	0.466
249.000	206.949	80.005	19.994	104.049	20.020	1.869	0.478
249.500	207.189	80.006	19.993	104.050	20.022	1.717	0.502
250.000	207.449	80.004	19.993	104.049	20.022	1.693	0.505
250.500	207.678	80.005	19.995	104.046	20.020	1.862	0.494
251.000	207.933	80.005	19.993	104.045	20.020	1.862	0.487
251.500	208.145	80.004	19.993	104.042	20.019	1.902	0.476
252.000	208.412	80.006	19.993	104.038	20.021	1.798	0.473
252.500	208.662	80.003	19.993	104.039	20.019	1.945	0.498
253.000	208.923	80.003	19.993	104.039	20.020	1.836	0.514
253.500	209.133	80.004	19.994	104.040	20.025	1.498	0.491
254.000	209.391	80.005	19.993	104.044	20.023	1.665	0.469
254.500	209.633	80.004	19.994	104.046	20.022	1.682	0.484
255.000	209.894	80.004	19.993	104.051	20.025	1.493	0.501
255.500	210.118	80.005	19.994	104.055	20.022	1.722	0.494
256.000	210.372	80.005	19.993	104.055	20.025	1.537	0.482
256.500	210.624	80.005	19.994	104.051	20.024	1.568	0.492
257.000	210.837	80.006	19.992	104.049	20.023	1.629	0.486
257.500	211.105	80.005	19.993	104.045	20.024	1.605	0.474
258.000	211.338	80.005	19.994	104.040	20.024	1.587	0.491
258.500	211.594	80.005	19.993	104.039	20.024	1.585	0.494
259.000	211.832	80.004	19.993	104.045	20.026	1.423	0.491
259.500	212.100	80.003	19.993	104.045	20.022	1.717	0.500
260.000	212.322	80.004	19.993	104.043	20.026	1.467	0.498
260.500	212.538	80.004	19.994	104.046	20.021	1.803	0.464
261.000	212.795	80.004	19.994	104.050	20.023	1.655	0.456
261.500	213.046	80.004	19.993	104.044	20.022	1.697	0.490
262.000	213.292	80.005	19.994	104.047	20.024	1.599	0.502
262.500	213.542	80.003	19.994	104.046	20.024	1.607	0.496
263.000	213.808	80.004	19.994	104.043	20.023	1.636	0.506
263.500	214.028	80.005	19.994	104.044	20.024	1.601	0.501
264.000	214.277	80.005	19.994	104.046	20.024	1.563	0.477
264.500	214.504	80.004	19.994	104.042	20.026	1.423	0.472
265.000	214.725	80.003	19.994	104.045	20.022	1.700	0.462
265.500	214.980	80.003	19.994	104.048	20.026	1.451	0.462
266.000	215.244	80.003	19.993	104.046	20.022	1.689	0.497
266.500	215.471	80.004	19.994	104.045	20.024	1.557	0.505
267.000	215.729	80.003	19.993	104.050	20.024	1.592	0.488
267.500	216.006	80.004	19.993	104.053	20.025	1.524	0.510
268.001	216.228	80.004	19.995	104.051	20.026	1.427	0.517
268.500	216.464	80.004	19.994	104.049	20.024	1.592	0.478
269.000	216.739	80.004	19.994	104.048	20.023	1.618	0.484
269.500	216.943	80.003	19.993	104.044	20.025	1.493	0.495
270.000	217.221	80.004	19.996	104.045	20.025	1.511	0.481
270.500	217.451	80.005	19.996	104.049	20.025	1.535	0.496
271.000	217.688	80.004	19.995	104.053	20.026	1.460	0.488
271.500	217.924	80.004	19.995	104.054	20.027	1.390	0.470
272.000	218.204	80.004	19.995	104.053	20.028	1.316	0.494
272.501	218.412	80.005	19.995	104.045	20.025	1.495	0.502
273.000	218.705	80.004	19.995	104.040	20.025	1.540	0.495
273.500	218.924	80.004	19.995	104.036	20.027	1.388	0.506
274.000	219.197	80.005	19.994	104.035	20.023	1.619	0.501
274.500	219.385	80.002	19.993	104.036	20.025	1.539	0.476
275.000	219.649	80.004	19.994	104.039	20.023	1.610	0.457
275.500	219.897	80.005	19.995	104.039	20.025	1.496	0.482
276.000	220.121	80.005	19.994	104.040	20.024	1.607	0.492
276.500	220.407	80.004	19.995	104.039	20.022	1.706	0.491
277.000	220.644	80.006	19.994	104.039	20.023	1.630	0.517
277.500	220.909	80.005	19.994	104.037	20.023	1.634	0.512
278.000	221.125	80.005	19.995	104.036	20.023	1.638	0.492
278.500	221.384	80.005	19.994	104.036	20.022	1.724	0.478
279.000	221.648	80.006	19.993	104.036	20.023	1.638	0.499
279.500	221.856	80.006	19.994	104.036	20.025	1.531	0.497
280.000	222.149	80.004	19.993	104.036	20.025	1.500	0.486
280.500	222.379	80.005	19.995	104.037	20.025	1.517	0.512
281.000	222.650	80.004	19.995	104.037	20.020	1.810	0.512
281.500	222.858	80.007	19.994	104.038	20.025	1.535	0.490
282.000	223.109	80.004	19.994	104.036	20.024	1.601	0.469
282.500	223.364	80.003	19.995	104.036	20.025	1.524	0.483
283.000	223.610	80.004	19.994	104.036	20.024	1.575	0.503
283.500	223.863	80.004	19.994	104.034	20.026	1.410	0.499
284.000	224.093	80.004	19.994	104.034	20.028	1.305	0.491
284.500	224.330	80.004	19.993	104.035	20.025	1.518	0.476
285.000	224.597	80.005	19.992	104.038	20.029	1.267	0.486
285.500	224.825	80.004	19.994	104.038	20.028	1.294	0.499
286.000	225.096	80.003	19.994	104.039	20.028	1.296	0.496
286.500	225.321	80.004	19.994	104.038	20.030	1.180	0.498
287.000	225.591	80.005	19.992	104.037	20.026	1.441	0.496
287.500	225.815	80.004	19.995	104.036	20.028	1.318	0.495
288.000	226.087	80.003	19.995	104.035	20.026	1.419	0.495
288.500	226.295	80.003	19.994	104.035	20.027	1.357	0.488
289.000	226.565	80.005	19.993	104.035	20.030	1.192	0.479
289.500	226.808	80.004	19.993	104.035	20.027	1.385	0.496
290.000	227.035	80.004	19.995	104.035	20.029	1.214	0.492
290.500	227.287	80.004	19.995	104.036	20.028	1.304	0.475
291.000	227.509	80.004	19.993	104.036	20.026	1.410	0.477
291.500	227.800	80.004	19.995	104.035	20.027	1.399	0.493
292.000	228.000	80.004	19.996	104.035	20.027	1.362	0.501
292.500	228.272	80.006	19.994	104.035	20.031	1.094	0.481
293.000	228.555	80.005	19.995	104.037	20.028	1.326	0.514
293.500	228.788	80.004	19.993	104.039	20.028	1.282	0.536
294.000	229.035	80.004	19.993	104.039	20.031	1.080	0.498
294.500	229.271	80.005	19.994	104.038	20.030	1.169	0.482
295.000	229.504	80.004	19.994	104.036	20.030	1.201	0.476
295.500	229.793	80.006	19.994	104.033	20.031	1.096	0.495
296.000	230.021	80.005	19.994	104.030	20.030	1.147	0.519
296.500	230.291	80.005	19.994	104.029	20.030	1.184	0.507
297.000	230.510	80.005	19.993	104.024	20.031	1.100	0.494
297.500	230.803	80.005	19.995	104.017	20.028	1.285	0.501
298.000	231.048	80.005	19.995	104.016	20.030	1.169	0.525
298.500	231.300	80.005	19.994	104.017	20.028	1.304	0.518
299.000	231.531	80.006	19.994	104.017	20.028	1.287	0.490
299.500	231.795	80.005	19.995	104.028	20.030	1.169	0.489
300.000	232.002	80.004	19.994	104.039	20.029	1.228	0.482
300.500	232.278	80.006	19.994	104.049	20.028	1.294	0.477
301.000	232.507	80.005	19.995	104.048	20.030	1.146	0.494
301.500	232.763	80.005	19.994	104.047	20.028	1.327	0.495
302.000	233.025	80.007	19.995	104.041	20.030	1.203	0.501
302.500	233.255	80.006	19.995	104.035	20.029	1.237	0.505
303.000	233.514	80.006	19.994	104.029	20.029	1.252	0.490
303.500	233.799	80.005	19.995	104.030	20.029	1.256	0.517
304.000	234.000	80.007	19.995	104.031	20.032	1.028	0.516
304.500	234.229	80.006	19.994	104.031	20.032	1.035	0.458
305.000	234.468	80.004	19.995	104.032	20.031	1.135	0.449
305.500	234.729	80.007	19.995	104.030	20.031	1.096	0.484
306.000	234.973	80.005	19.995	104.029	20.033	0.997	0.502
306.500	235.237	80.005	19.996	104.028	20.028	1.289	0.506
307.000	235.479	80.005	19.995	104.029	20.030	1.204	0.507
307.500	235.743	80.005	19.994	104.029	20.030	1.158	0.506
308.000	235.978	80.004	19.994	104.029	20.031	1.080	0.503
308.500	236.229	80.004	19.995	104.029	20.029	1.223	0.493
309.000	236.500	80.004	19.994	104.029	20.030	1.151	0.504
309.500	236.729	80.005	19.994	104.028	20.030	1.175	0.510
310.000	236.982	80.005	19.994	104.028	20.028	1.338	0.491
310.500	237.240	80.004	19.994	104.028	20.030	1.173	0.497
311.000	237.482	80.003	19.994	104.028	20.029	1.267	0.506
311.500	237.737	80.005	19.994	104.028	20.032	1.067	0.498
312.000	237.997	80.003	19.994	104.029	20.029	1.206	0.505
312.500	238.232	80.004	19.994	104.029	20.032	1.028	0.505
313.000	238.446	80.004	19.993	104.029	20.030	1.164	0.472
313.500	238.694	80.004	19.993	104.028	20.031	1.098	0.456
314.000	238.953	80.004	19.993	104.028	20.031	1.080	0.485
314.500	239.219	80.003	19.994	104.028	20.033	0.957	0.516
315.000	239.426	80.005	19.994	104.029	20.030	1.153	0.499
315.500	239.683	80.003	19.993	104.030	20.029	1.267	0.469
316.000	239.954	80.004	19.993	104.031	20.031	1.111	0.496
316.500	240.175	80.004	19.993	104.032	20.028	1.316	0.510
317.000	240.413	80.004	19.993	104.032	20.030	1.149	0.475
317.500	240.691	80.003	19.993	104.032	20.028	1.309	0.488
318.000	240.945	80.004	19.994	104.031	20.028	1.285	0.524
318.500	241.195	80.004	19.994	104.030	20.030	1.159	0.518
319.000	241.399	80.004	19.994	104.030	20.030	1.173	0.479
319.500	241.673	80.003	19.993	104.030	20.028	1.276	0.466
320.000	241.890	80.005	19.993	104.030	20.027	1.353	0.484
320.500	242.163	80.003	19.993	104.030	20.029	1.252	0.491
321.000	242.412	80.005	19.992	104.031	20.030	1.138	0.507
321.500	242.669	80.005	19.994	104.030	20.028	1.322	0.514
322.000	242.901	80.004	19.994	104.029	20.029	1.217	0.497
322.500	243.160	80.005	19.993	104.029	20.026	1.423	0.490
323.000	243.414	80.004	19.993	104.029	20.030	1.188	0.502
323.500	243.668	80.004	19.994	104.028	20.028	1.291	0.511
324.000	243.896	80.003	19.993	104.029	20.027	1.395	0.495
324.500	244.148	80.003	19.993	104.030	20.027	1.362	0.481
325.000	244.396	80.004	19.994	104.030	20.030	1.146	0.490
325.501	244.642	80.004	19.992	104.031	20.032	1.061	0.497
326.001	244.905	80.002	19.995	104.031	20.031	1.100	0.501
326.500	245.144	80.004	19.993	104.032	20.032	1.059	0.506
327.000	245.409	80.003	19.993	104.032	20.031	1.091	0.503
327.500	245.637	80.004	19.993	104.033	20.033	0.947	0.498
328.000	245.889	80.003	19.994	104.033	20.032	1.034	0.486
328.500	246.108	80.005	19.993	104.034	20.032	1.041	0.475
329.000	246.374	80.004	19.994	104.034	20.030	1.190	0.478
329.500	246.622	80.003	19.994	104.034	20.032	1.063	0.500
330.000	246.840	80.004	19.993	104.034	20.031	1.120	0.490
330.500	247.140	80.003	19.993	104.033	20.030	1.182	0.492
331.000	247.337	80.004	19.994	104.032	20.032	1.039	0.508
331.500	247.631	80.005	19.994	104.031	20.034	0.901	0.494
332.000	247.877	80.004	19.993	104.031	20.032	1.059	0.515
332.500	248.133	80.003	19.993	104.031	20.031	1.072	0.521
333.000	248.337	80.004	19.993	104.032	20.033	0.951	0.481
333.500	248.612	80.003	19.993	104.032	20.032	1.017	0.470
334.000	248.851	80.004	19.993	104.034	20.034	0.892	0.497
334.500	249.114	80.003	19.993	104.034	20.034	0.879	0.508
335.000	249.351	80.004	19.994	104.034	20.034	0.936	0.501
335.500	249.617	80.004	19.992	104.034	20.037	0.734	0.501
336.000	249.867	80.004	19.993	104.031	20.033	0.968	0.510
336.500	250.116	80.002	19.994	104.030	20.037	0.729	0.508
337.000	250.396	80.003	19.994	104.031	20.034	0.909	0.514
337.500	250.598	80.004	19.994	104.030	20.035	0.824	0.506
338.000	250.876	80.003	19.993	104.027	20.030	1.157	0.481
338.500	251.106	80.003	19.993	104.025	20.032	1.028	0.494
339.000	251.413	80.004	19.994	104.025	20.035	0.846	0.523
339.500	251.631	80.003	19.994	104.025	20.034	0.881	0.531
340.000	251.895	80.002	19.991	104.026	20.034	0.922	0.504
340.500	252.128	80.003	19.994	104.029	20.033	0.997	0.490
341.000	252.345	80.003	19.994	104.034	20.035	0.854	0.473
341.500	252.611	80.003	19.993	104.035	20.036	0.800	0.467
342.000	252.875	80.003	19.995	104.035	20.034	0.931	0.506
342.500	253.139	80.003	19.994	104.035	20.034	0.911	0.529
343.000	253.358	80.003	19.994	104.036	20.033	0.993	0.506
343.500	253.631	80.004	19.993	104.036	20.035	0.863	0.487
344.000	253.864	80.002	19.993	104.035	20.034	0.879	0.499
344.500	254.087	80.001	19.994	104.032	20.036	0.749	0.481
345.000	254.348	80.004	19.993	104.028	20.031	1.094	0.470
345.500	254.622	80.002	19.994	104.026	20.036	0.791	0.510
346.000	254.895	80.003	19.993	104.026	20.034	0.876	0.541
346.500	255.111	80.004	19.993	104.026	20.034	0.881	0.518
347.000	255.357	80.003	19.993	104.029	20.037	0.729	0.475
347.500	255.664	80.002	19.992	104.029	20.034	0.916	0.507
348.000	255.876	80.002	19.994	104.026	20.035	0.867	0.536
348.500	256.122	80.002	19.993	104.026	20.033	0.962	0.489
349.000	256.392	80.002	19.993	104.027	20.034	0.925	0.487
349.500	256.654	80.004	19.993	104.029	20.035	0.865	0.524
350.000	256.892	80.003	19.994	104.032	20.033	1.002	0.516
350.500	257.141	80.005	19.992	104.035	20.035	0.830	0.493
351.001	257.370	80.004	19.993	104.035	20.037	0.676	0.482
351.501	257.639	80.003	19.993	104.035	20.034	0.918	0.488
352.000	257.876	80.003	19.993	104.030	20.036	0.745	0.502
352.500	258.114	80.005	19.992	104.026	20.036	0.791	0.490
353.000	258.379	80.004	19.993	104.026	20.035	0.824	0.489
353.500	258.634	80.005	19.993	104.027	20.035	0.813	0.512
354.000	258.882	80.005	19.993	104.027	20.036	0.769	0.512
354.500	259.129	80.004	19.992	104.031	20.035	0.856	0.498
355.000	259.376	80.004	19.994	104.035	20.035	0.856	0.494
355.500	259.629	80.004	19.995	104.031	20.036	0.745	0.497
356.000	259.893	80.005	19.994	104.030	20.036	0.780	0.509
356.500	260.120	80.006	19.992	104.027	20.037	0.672	0.504
357.000	260.369	80.004	19.993	104.027	20.038	0.641	0.484
357.500	260.644	80.005	19.993	104.027	20.035	0.830	0.500
358.000	260.887	80.005	19.993	104.028	20.036	0.791	0.521
358.500	261.106	80.006	19.993	104.027	20.036	0.762	0.490
359.000	261.360	80.005	19.994	104.027	20.035	0.843	0.468
359.500	261.658	80.005	19.994	104.022	20.037	0.668	0.512
360.000	261.862	80.005	19.993	104.022	20.037	0.677	0.526
360.500	262.166	80.005	19.994	104.023	20.037	0.725	0.505
361.000	262.354	80.007	19.994	104.024	20.036	0.797	0.500
361.500	262.642	80.005	19.993	104.024	20.036	0.784	0.484
362.000	262.877	80.004	19.994	104.025	20.035	0.848	0.500
362.500	263.130	80.004	19.993	104.026	20.035	0.826	0.506
363.000	263.396	80.005	19.993	104.024	20.031	1.127	0.504
363.500	263.652	80.005	19.993	104.021	20.035	0.861	0.520
364.000	263.893	80.005	19.993	104.021	20.035	0.804	0.509
364.500	264.157	80.004	19.994	104.025	20.034	0.890	0.501
365.000	264.407	80.004	19.994	104.024	20.036	0.736	0.509
365.500	264.682	80.003	19.995	104.025	20.037	0.709	0.519
366.000	264.915	80.004	19.993	104.028	20.033	0.956	0.517
366.500	265.133	80.003	19.994	104.027	20.034	0.907	0.480
367.001	265.400	80.003	19.994	104.027	20.032	1.052	0.468
367.500	265.634	80.004	19.994	104.025	20.031	1.090	0.493
368.000	265.889	80.003	19.995	104.019	20.034	0.890	0.495
368.500	266.163	80.005	19.995	104.011	20.034	0.929	0.509
369.000	266.387	80.004	19.996	104.008	20.033	0.988	0.514
369.500	266.665	80.003	19.994	104.006	20.033	0.945	0.500
370.000	266.919	80.004	19.993	104.008	20.034	0.883	0.517
370.500	267.177	80.004	19.995	104.017	20.034	0.892	0.522
371.000	267.403	80.005	19.994	104.024	20.033	0.988	0.498
371.500	267.656	80.004	19.995	104.030	20.038	0.652	0.482
372.000	267.921	80.005	19.994	104.036	20.035	0.837	0.499
372.500	268.158	80.004	19.995	104.035	20.035	0.857	0.510
373.000	268.397	80.006	19.994	104.035	20.037	0.710	0.489
373.500	268.668	80.005	19.993	104.034	20.032	1.004	0.493
374.000	268.927	80.004	19.995	104.031	20.036	0.767	0.520
374.500	269.155	80.005	19.994	104.025	20.035	0.859	0.509
375.000	269.400	80.006	19.994	104.026	20.034	0.898	0.480
375.500	269.645	80.007	19.993	104.024	20.035	0.837	0.482
376.000	269.924	80.005	19.995	104.024	20.036	0.791	0.507
376.501	270.161	80.005	19.994	104.024	20.038	0.655	0.520
377.000	270.411	80.005	19.993	104.022	20.036	0.767	0.501
377.500	270.667	80.006	19.994	104.021	20.038	0.615	0.497
378.000	270.915	80.006	19.994	104.018	20.037	0.668	0.506
378.500	271.186	80.005	19.995	104.017	20.035	0.808	0.512
379.000	271.450	80.005	19.995	104.019	20.035	0.826	0.527
379.500	271.712	80.006	19.994	104.021	20.036	0.738	0.530
380.000	271.962	80.006	19.994	104.018	20.039	0.578	0.519
380.500	272.226	80.007	19.994	104.021	20.036	0.775	0.513
381.000	272.434	80.006	19.992	104.021	20.036	0.743	0.493
381.500	272.683	80.006	19.994	104.019	20.034	0.931	0.465
382.000	272.937	80.007	19.994	104.017	20.036	0.788	0.480
382.500	273.193	80.006	19.994	104.015	20.036	0.795	0.506
383.000	273.462	80.005	19.995	104.016	20.034	0.887	0.517
383.500	273.701	80.005	19.994	104.017	20.033	0.966	0.516
384.000	273.975	80.005	19.995	104.018	20.033	0.968	0.511
384.500	274.204	80.006	19.994	104.020	20.034	0.881	0.508
385.000	274.440	80.006	19.994	104.024	20.035	0.841	0.484
385.500	274.704	80.007	19.993	104.023	20.034	0.936	0.482
386.000	274.986	80.007	19.994	104.022	20.037	0.688	0.523
386.500	275.232	80.005	19.994	104.019	20.038	0.655	0.537
387.000	275.478	80.006	19.994	104.020	20.036	0.736	0.510
387.500	275.702	80.005	19.994	104.020	20.036	0.764	0.481
388.000	276.001	80.006	19.995	104.023	20.037	0.718	0.497
388.500	276.214	80.005	19.994	104.024	20.036	0.775	0.517
389.000	276.476	80.004	19.994	104.026	20.037	0.683	0.493
389.500	276.750	80.005	19.995	104.027	20.035	0.856	0.506
390.000	276.990	80.004	19.995	104.026	20.037	0.729	0.525
390.500	277.222	80.004	19.994	104.024	20.035	0.811	0.493
391.000	277.508	80.003	19.994	104.023	20.033	0.977	0.495
391.500	277.744	80.004	19.993	104.024	20.036	0.758	0.520
392.000	277.987	80.003	19.994	104.020	20.039	0.562	0.500
392.500	278.269	80.003	19.994	104.020	20.035	0.852	0.502
393.000	278.498	80.003	19.995	104.023	20.040	0.527	0.518
393.500	278.763	80.002	19.995	104.022	20.037	0.688	0.502
394.000	279.026	80.004	19.994	104.022	20.037	0.683	0.511
394.500	279.288	80.003	19.995	104.025	20.038	0.655	0.526
395.000	279.543	80.004	19.994	104.026	20.038	0.657	0.521
395.500	279.769	80.002	19.995	104.027	20.038	0.663	0.499
396.000	280.049	80.003	19.995	104.027	20.038	0.624	0.494
396.500	280.264	80.003	19.995	104.028	20.038	0.632	0.500
397.000	280.540	80.003	19.995	104.027	20.039	0.536	0.493
397.500	280.763	80.003	19.995	104.023	20.036	0.745	0.496
398.000	281.046	80.003	19.996	104.019	20.036	0.738	0.503
398.500	281.253	80.002	19.995	104.022	20.039	0.567	0.498
399.000	281.498	80.004	19.994	104.021	20.041	0.431	0.471
399.500	281.789	80.002	19.997	104.023	20.045	0.165	0.494
400.000	282.041	80.002	19.993	104.027	20.039	0.587	0.539
400.500	282.320	80.003	19.995	104.026	20.042	0.367	0.536
401.000	282.542	80.004	19.995	104.021	20.038	0.632	0.516
401.500	282.832	80.003	19.995	104.019	20.039	0.545	0.507
402.000	283.076	80.003	19.994	104.016	20.039	0.567	0.523
402.500	283.336	80.003	19.994	104.014	20.042	0.336	0.519
403.000	283.594	80.003	19.995	104.017	20.042	0.341	0.511
403.500	283.846	80.002	19.994	104.017	20.041	0.457	0.514
404.000	284.097	80.002	19.993	104.013	20.044	0.257	0.507
404.500	284.339	80.004	19.994	104.014	20.042	0.373	0.498
405.000	284.599	80.003	19.994	104.010	20.041	0.461	0.497
405.500	284.832	80.001	19.993	104.006	20.041	0.448	0.497
406.000	285.109	80.004	19.993	104.011	20.038	0.630	0.501
406.500	285.364	80.002	19.994	104.016	20.039	0.549	0.521
407.000	285.650	80.002	19.994	104.017	20.040	0.468	0.537
407.500	285.883	80.002	19.994	104.024	20.044	0.259	0.531
408.000	286.127	80.002	19.993	104.029	20.039	0.547	0.498
408.500	286.400	80.003	19.995	104.023	20.043	0.329	0.497
409.000	286.703	80.003	19.994	104.023	20.043	0.330	0.546
409.500	286.915	80.003	19.994	104.021	20.040	0.490	0.546
410.000	287.192	80.004	19.993	104.015	20.041	0.437	0.502
410.500	287.460	80.002	19.995	104.013	20.037	0.686	0.517
411.000	287.706	80.003	19.993	104.016	20.038	0.628	0.530
411.500	287.930	80.003	19.994	104.016	20.040	0.530	0.492
412.000	288.176	80.005	19.993	104.020	20.040	0.477	0.470
412.500	288.459	80.003	19.994	104.024	20.039	0.547	0.499
413.000	288.715	80.003	19.994	104.024	20.040	0.508	0.534
413.500	289.009	80.003	19.994	104.024	20.042	0.389	0.545
414.000	289.216	80.004	19.992	104.019	20.042	0.374	0.526
414.500	289.481	80.003	19.993	104.012	20.044	0.251	0.486
415.001	289.705	80.002	19.993	104.006	20.040	0.483	0.480
415.500	289.983	80.004	19.993	104.001	20.042	0.376	0.496
416.000	290.234	80.003	19.992	103.997	20.046	0.079	0.516
416.500	290.496	80.003	19.993	104.000	20.040	0.483	0.521
417.000	290.757	80.002	19.994	104.002	20.040	0.490	0.517
417.500	291.034	80.003	19.993	104.005	20.040	0.477	0.530
418.000	291.296	80.004	19.993	104.006	20.045	0.184	0.539
418.500	291.529	80.004	19.993	104.008	20.043	0.303	0.517
419.000	291.816	80.004	19.995	104.003	20.039	0.556	0.508
419.500	292.079	80.003	19.994	104.001	20.047	0.013	0.535
420.000	292.329	80.004	19.993	103.999	20.043	0.325	0.531
420.500	292.546	80.004	19.994	103.998	20.045	0.176	0.490
421.000	292.797	80.003	19.993	103.995	20.045	0.139	0.467
421.500	293.039	80.003	19.994	103.995	20.046	0.072	0.481
422.000	293.314	80.003	19.994	103.995	20.045	0.134	0.505
422.500	293.522	80.003	19.994	103.994	20.045	0.139	0.499
423.000	293.793	80.005	19.994	103.994	20.047	0.055	0.481
423.500	294.007	80.002	19.994	103.995	20.046	0.127	0.482
424.000	294.265	80.001	19.994	103.994	20.044	0.248	0.479
424.500	294.551	80.003	19.994	103.997	20.045	0.185	0.508
425.000	294.816	80.003	19.995	104.000	20.045	0.156	0.547
425.500	295.032	80.002	19.994	104.000	20.047	0.007	0.516
426.000	295.313	80.002	19.994	104.000	20.047	0.062	0.488
426.500	295.535	80.002	19.994	104.000	20.046	0.072	0.500
427.000	295.811	80.004	19.993	103.997	20.045	0.162	0.501
427.500	296.052	80.003	19.994	103.993	20.048	-0.022	0.508
428.000	296.294	80.003	19.994	103.993	20.043	0.286	0.500
428.500	296.548	80.003	19.994	103.992	20.046	0.079	0.489
429.000	296.785	80.003	19.994	103.991	20.046	0.103	0.493
429.500	297.040	80.002	19.995	103.996	20.045	0.173	0.491
430.000	297.302	80.003	19.995	103.997	20.045	0.171	0.505
430.500	297.597	80.003	19.994	103.998	20.045	0.160	0.538
431.000	297.811	80.003	19.995	103.997	20.042	0.365	0.533
431.500	298.022	80.002	19.994	103.998	20.045	0.167	0.467
432.000	298.256	80.003	19.994	103.994	20.045	0.160	0.435
432.500	298.536	80.004	19.995	103.994	20.049	-0.077	0.479
433.000	298.818	80.004	19.995	103.993	20.044	0.226	0.538
433.500	299.072	80.004	19.994	103.993	20.045	0.182	0.549
434.000	299.325	80.004	19.994	103.994	20.044	0.239	0.522
434.500	299.593	80.005	19.994	103.995	20.044	0.218	0.514
435.000	299.835	80.004	19.995	103.995	20.045	0.154	0.515
435.500	300.077	80.004	19.994	103.995	20.047	0.006	0.497
436.000	300.351	80.004	19.995	103.995	20.045	0.160	0.500
436.500	300.555	80.005	19.995	103.994	20.048	-0.031	0.497
437.000	300.830	80.006	19.994	103.995	20.048	-0.028	0.479
437.500	301.037	80.005	19.994	103.997	20.047	0.024	0.481
438.000	301.304	80.006	19.993	103.998	20.044	0.213	0.478
438.500	301.539	80.005	19.993	103.997	20.046	0.105	0.488
439.000	301.808	80.006	19.994	103.997	20.045	0.132	0.503
439.500	302.022	80.006	19.992	103.995	20.046	0.106	0.494
440.000	302.321	80.005	19.994	103.993	20.045	0.173	0.498
440.500	302.534	80.005	19.994	103.991	20.044	0.244	0.513
441.000	302.774	80.006	19.993	103.992	20.045	0.178	0.483
441.500	303.015	80.006	19.992	103.993	20.046	0.127	0.467
442.000	303.280	80.006	19.994	103.995	20.044	0.200	0.493
442.500	303.506	80.006	19.994	103.996	20.049	-0.108	0.498
443.000	303.763	80.006	19.994	103.996	20.048	-0.051	0.487
443.500	304.016	80.005	19.993	103.994	20.047	0.040	0.497
444.000	304.297	80.006	19.993	103.993	20.050	-0.165	0.522
444.500	304.507	80.006	19.993	103.993	20.046	0.079	0.512
445.000	304.780	80.005	19.993	103.993	20.048	-0.031	0.488
445.500	305.033	80.005	19.994	103.993	20.048	-0.042	0.505
446.000	305.268	80.005	19.993	103.993	20.047	0.031	0.507
446.500	305.528	80.005	19.993	103.993	20.048	-0.026	0.491
447.000	305.778	80.005	19.994	103.993	20.048	-0.062	0.502
447.500	305.970	80.005	19.993	103.992	20.048	-0.040	0.477
448.000	306.250	80.004	19.993	103.992	20.051	-0.239	0.457
448.500	306.523	80.006	19.993	103.992	20.048	-0.059	0.512
449.000	306.790	80.005	19.993	103.992	20.048	-0.035	0.546
449.500	307.015	80.005	19.992	103.992	20.044	0.204	0.516
450.000	307.284	80.005	19.994	103.992	20.048	-0.051	0.493
450.500	307.490	80.003	19.995	103.992	20.049	-0.079	0.484
451.000	307.771	80.005	19.993	103.995	20.046	0.123	0.480
451.500	308.047	80.004	19.994	103.995	20.048	-0.068	0.522
452.000	308.261	80.005	19.993	103.995	20.048	-0.061	0.523
452.500	308.470	80.005	19.993	103.996	20.047	0.020	0.456
453.000	308.726	80.005	19.993	103.995	20.049	-0.073	0.444
453.500	308.979	80.004	19.995	103.993	20.049	-0.138	0.487
454.000	309.260	80.005	19.994	103.994	20.048	-0.035	0.521
454.500	309.477	80.004	19.995	103.998	20.048	-0.028	0.516
455.000	309.704	80.005	19.994	104.001	20.050	-0.139	0.471
455.500	309.995	80.005	19.994	104.001	20.047	-0.002	0.481
456.000	310.266	80.004	19.994	104.003	20.046	0.073	0.541
456.500	310.464	80.003	19.995	104.004	20.049	-0.134	0.516
457.000	310.744	80.005	19.994	104.000	20.047	0.044	0.473
457.500	311.028	80.006	19.994	103.997	20.047	0.017	0.521
458.000	311.317	80.006	19.994	103.997	20.050	-0.167	0.568
458.500	311.534	80.004	19.994	103.996	20.046	0.066	0.539
459.000	311.775	80.004	19.995	103.996	20.048	-0.037	0.482
459.500	312.042	80.006	19.995	103.996	20.047	0.044	0.484
460.000	312.332	80.003	19.993	103.997	20.048	-0.028	0.533
460.500	312.576	80.006	19.994	103.998	20.049	-0.128	0.545
461.000	312.820	80.007	19.994	104.000	20.044	0.231	0.511
461.500	313.113	80.006	19.994	104.002	20.046	0.127	0.513
462.000	313.343	80.005	19.994	104.002	20.044	0.242	0.530
462.500	313.549	80.005	19.994	104.001	20.046	0.086	0.480
463.000	313.839	80.006	19.995	104.000	20.046	0.105	0.466
463.500	314.117	80.004	19.994	103.998	20.047	0.057	0.532
464.000	314.356	80.006	19.993	103.994	20.048	-0.066	0.543
464.500	314.620	80.005	19.994	103.993	20.044	0.235	0.510
465.000	314.869	80.005	19.994	103.993	20.045	0.182	0.508
465.500	315.122	80.004	19.994	103.993	20.046	0.090	0.507
466.000	315.363	80.006	19.995	103.993	20.043	0.266	0.498
466.500	315.659	80.004	19.995	103.994	20.047	0.037	0.515
467.000	315.889	80.006	19.994	103.998	20.046	0.114	0.531
467.500	316.113	80.004	19.994	103.999	20.047	0.042	0.490
468.000	316.430	80.003	19.994	103.999	20.047	0.013	0.498
468.500	316.657	80.006	19.995	103.999	20.049	-0.094	0.542
469.000	316.918	80.006	19.994	103.997	20.049	-0.101	0.516
469.500	317.165	80.005	19.994	103.994	20.046	0.116	0.498
470.000	317.443	80.005	19.993	103.994	20.047	0.039	0.517
470.500	317.673	80.005	19.994	103.995	20.045	0.145	0.517
471.000	317.937	80.005	19.994	103.996	20.046	0.068	0.502
471.500	318.218	80.004	19.993	103.996	20.047	0.033	0.520
472.000	318.461	80.003	19.994	103.996	20.047	-0.002	0.534
472.500	318.704	80.004	19.994	103.996	20.046	0.116	0.504
473.000	318.944	80.002	19.993	103.996	20.048	-0.046	0.484
473.500	319.227	80.005	19.994	103.996	20.047	0.028	0.503
474.000	319.460	80.002	19.995	103.996	20.050	-0.143	0.520
474.500	319.693	80.004	19.993	103.998	20.051	-0.233	0.492
475.000	319.941	80.003	19.994	103.997	20.047	0.061	0.473
475.500	320.239	80.004	19.993	103.997	20.049	-0.128	0.513
476.000	320.509	80.002	19.994	103.997	20.044	0.231	0.557
476.500	320.724	80.002	19.993	103.997	20.049	-0.094	0.527
477.000	320.961	80.002	19.994	103.995	20.046	0.108	0.469
477.500	321.233	80.002	19.994	103.996	20.051	-0.228	0.481
478.000	321.523	80.002	19.994	103.996	20.048	-0.062	0.535
478.500	321.776	80.003	19.994	103.996	20.050	-0.206	0.552
479.000	322.015	80.002	19.994	103.996	20.048	-0.026	0.518
479.500	322.273	80.002	19.994	103.996	20.049	-0.136	0.495
480.000	322.533	80.001	19.994	103.996	20.053	-0.351	0.507
480.500	322.795	80.002	19.994	103.996	20.050	-0.187	0.520
481.000	323.076	80.002	19.995	103.996	20.050	-0.162	0.532
481.500	323.275	80.002	19.994	103.996	20.051	-0.248	0.511
482.000	323.581	80.001	19.994	103.994	20.050	-0.165	0.493
482.500	323.839	80.003	19.994	103.993	20.050	-0.189	0.535
483.000	324.080	80.001	19.995	103.993	20.052	-0.334	0.532
483.500	324.344	80.004	19.994	103.992	20.045	0.149	0.502
484.000	324.601	80.003	19.994	103.992	20.049	-0.103	0.513
484.500	324.849	80.003	19.995	103.993	20.048	-0.022	0.513
485.000	325.109	80.002	19.995	103.993	20.049	-0.136	0.507
485.500	325.383	80.001	19.994	103.993	20.050	-0.161	0.521
486.000	325.637	80.003	19.995	103.992	20.048	-0.024	0.531
486.500	325.902	80.003	19.995	103.993	20.048	-0.017	0.523
487.000	326.123	80.004	19.994	103.992	20.047	0.031	0.503
487.500	326.409	80.003	19.994	103.990	20.049	-0.079	0.497
488.000	326.674	80.003	19.995	103.984	20.048	-0.051	0.529
488.500	326.947	80.003	19.996	103.980	20.047	0.004	0.544
489.000	327.166	80.003	19.995	103.980	20.048	-0.050	0.515
489.500	327.442	80.004	19.995	103.979	20.051	-0.270	0.494
490.001	327.664	80.003	19.996	103.981	20.048	-0.064	0.497
490.500	327.939	80.003	19.996	103.987	20.049	-0.108	0.497
491.000	328.214	80.003	19.996	103.990	20.053	-0.363	0.523
491.500	328.456	80.003	19.994	103.989	20.051	-0.237	0.534
492.000	328.678	80.004	19.995	103.991	20.053	-0.395	0.490
492.500	328.951	80.004	19.995	103.990	20.053	-0.378	0.480
493.000	329.212	80.003	19.996	103.989	20.052	-0.295	0.515
493.500	329.503	80.003	19.994	103.984	20.050	-0.150	0.543
494.000	329.701	80.004	19.994	103.984	20.049	-0.105	0.521
494.500	329.975	80.004	19.994	103.982	20.049	-0.075	0.481
495.000	330.245	80.004	19.995	103.977	20.051	-0.239	0.508
495.500	330.492	80.004	19.996	103.977	20.052	-0.332	0.531
496.000	330.736	80.003	19.993	103.981	20.051	-0.231	0.504
496.500	330.952	80.005	19.995	103.982	20.052	-0.305	0.475
497.000	331.240	80.005	19.994	103.983	20.051	-0.231	0.482
497.500	331.488	80.004	19.995	103.989	20.049	-0.084	0.520
498.000	331.725	80.003	19.995	103.990	20.053	-0.343	0.510
498.500	331.999	80.004	19.994	103.987	20.049	-0.095	0.498
499.000	332.234	80.002	19.995	103.981	20.053	-0.341	0.510
499.500	332.484	80.003	19.994	103.974	20.049	-0.084	0.497
500.000	332.714	80.004	19.994	103.968	20.051	-0.239	0.483
500.500	333.006	80.002	19.995	103.968	20.052	-0.334	0.501
501.000	333.220	80.004	19.993	103.971	20.051	-0.220	0.513
501.500	333.491	80.003	19.995	103.976	20.053	-0.363	0.495
502.000	333.749	80.003	19.994	103.981	20.055	-0.481	0.507
502.500	333.996	80.003	19.993	103.982	20.054	-0.461	0.517
503.000	334.271	80.003	19.994	103.981	20.054	-0.461	0.514
503.501	334.541	80.003	19.993	103.979	20.054	-0.464	0.534
504.000	334.787	80.004	19.993	103.981	20.054	-0.418	0.530
504.500	335.023	80.003	19.994	103.982	20.052	-0.323	0.499
505.000	335.270	80.002	19.992	103.986	20.054	-0.422	0.483
505.500	335.539	80.003	19.993	103.987	20.054	-0.461	0.499
506.000	335.786	80.002	19.993	103.990	20.055	-0.532	0.516
506.500	336.040	80.002	19.994	103.989	20.054	-0.431	0.509
507.000	336.275	80.002	19.993	103.986	20.050	-0.184	0.495
507.500	336.557	80.002	19.993	103.982	20.053	-0.369	0.504
508.000	336.799	80.004	19.994	103.979	20.048	-0.053	0.521
508.500	337.024	80.003	19.994	103.978	20.050	-0.167	0.495
509.000	337.301	80.003	19.994	103.975	20.050	-0.193	0.484
509.500	337.541	80.003	19.994	103.976	20.052	-0.314	0.510
510.000	337.751	80.003	19.994	103.977	20.053	-0.384	0.483
510.500	338.026	80.004	19.993	103.977	20.051	-0.235	0.467
511.000	338.287	80.004	19.994	103.973	20.051	-0.272	0.510
511.500	338.537	80.004	19.995	103.975	20.054	-0.466	0.524
512.000	338.773	80.004	19.993	103.977	20.050	-0.206	0.499
512.500	339.005	80.004	19.994	103.980	20.051	-0.246	0.477
513.000	339.278	80.004	19.993	103.977	20.053	-0.396	0.486
513.500	339.524	80.003	19.994	103.977	20.054	-0.446	0.512
514.000	339.806	80.004	19.994	103.974	20.054	-0.466	0.524
514.500	340.078	80.005	19.993	103.971	20.052	-0.286	0.541
515.000	340.291	80.005	19.994	103.967	20.051	-0.207	0.519
515.500	340.539	80.004	19.995	103.968	20.051	-0.255	0.473
516.000	340.789	80.006	19.993	103.969	20.052	-0.330	0.480
516.500	341.075	80.004	19.995	103.972	20.051	-0.261	0.517
517.000	341.311	80.003	19.994	103.971	20.053	-0.356	0.529
517.500	341.541	80.005	19.994	103.976	20.053	-0.396	0.494
518.000	341.814	80.005	19.993	103.979	20.055	-0.512	0.484
518.500	342.032	80.005	19.994	103.980	20.052	-0.294	0.497
519.000	342.283	80.005	19.994	103.980	20.055	-0.516	0.480
519.500	342.505	80.007	19.993	103.984	20.053	-0.384	0.471
520.000	342.748	80.004	19.993	103.980	20.053	-0.367	0.469
520.500	343.017	80.004	19.996	103.980	20.053	-0.380	0.489
521.000	343.251	80.005	19.995	103.984	20.052	-0.295	0.508
521.500	343.466	80.006	19.994	103.986	20.054	-0.472	0.476
522.000	343.692	80.005	19.994	103.987	20.050	-0.182	0.445
522.500	343.979	80.004	19.995	103.989	20.051	-0.235	0.477
523.000	344.237	80.005	19.994	103.983	20.051	-0.220	0.529
523.500	344.445	80.004	19.993	103.978	20.056	-0.589	0.505
524.000	344.731	80.004	19.995	103.974	20.052	-0.310	0.480
524.500	344.961	80.004	19.993	103.973	20.054	-0.462	0.505
525.000	345.200	80.004	19.994	103.975	20.053	-0.345	0.492
525.500	345.497	80.005	19.993	103.981	20.052	-0.284	0.502
526.000	345.709	80.004	19.994	103.985	20.054	-0.462	0.523
526.500	345.989	80.004	19.995	103.985	20.052	-0.294	0.501
527.000	346.248	80.005	19.994	103.984	20.055	-0.527	0.516
527.500	346.496	80.004	19.993	103.981	20.056	-0.578	0.522
528.000	346.714	80.004	19.994	103.977	20.053	-0.352	0.486
528.500	346.963	80.004	19.994	103.979	20.054	-0.426	0.467
529.000	347.195	80.003	19.994	103.981	20.055	-0.512	0.474
529.500	347.468	80.005	19.993	103.984	20.055	-0.479	0.493
530.000	347.723	80.004	19.994	103.988	20.053	-0.402	0.517
530.501	347.965	80.004	19.994	103.992	20.052	-0.277	0.513
531.000	348.220	80.004	19.994	103.991	20.055	-0.534	0.497
531.500	348.470	80.003	19.993	103.987	20.056	-0.576	0.501
532.000	348.713	80.004	19.993	103.981	20.054	-0.473	0.499
532.500	348.957	80.004	19.993	103.977	20.057	-0.661	0.490
533.000	349.253	80.004	19.994	103.973	20.056	-0.547	0.513
533.500	349.467	80.004	19.994	103.970	20.056	-0.587	0.525
534.000	349.717	80.003	19.993	103.969	20.055	-0.530	0.487
534.500	349.990	80.003	19.993	103.970	20.058	-0.729	0.493
535.000	350.225	80.003	19.993	103.971	20.055	-0.510	0.515
535.500	350.446	80.003	19.992	103.975	20.055	-0.541	0.482
536.000	350.683	80.005	19.993	103.977	20.057	-0.640	0.457
536.500	350.987	80.004	19.993	103.982	20.057	-0.670	0.500
537.000	351.209	80.004	19.993	103.985	20.058	-0.699	0.533
537.500	351.473	80.005	19.993	103.983	20.057	-0.644	0.506
538.000	351.715	80.004	19.993	103.981	20.055	-0.541	0.496
538.500	351.977	80.003	19.993	103.981	20.055	-0.514	0.505
539.000	352.224	80.004	19.995	103.979	20.055	-0.490	0.506
539.500	352.472	80.004	19.993	103.978	20.057	-0.637	0.501
540.000	352.746	80.003	19.993	103.978	20.056	-0.550	0.509
540.500	353.018	80.004	19.994	103.978	20.053	-0.371	0.535
541.000	353.257	80.005	19.993	103.976	20.057	-0.631	0.529
541.500	353.504	80.006	19.994	103.973	20.053	-0.354	0.498
542.000	353.768	80.005	19.994	103.974	20.055	-0.481	0.498
542.500	354.049	80.006	19.993	103.978	20.055	-0.501	0.528
543.000	354.271	80.005	19.993	103.974	20.059	-0.749	0.524
543.500	354.526	80.006	19.993	103.971	20.057	-0.620	0.491
544.000	354.803	80.004	19.994	103.971	20.057	-0.640	0.505
544.500	355.043	80.006	19.994	103.973	20.057	-0.611	0.524
545.000	355.277	80.005	19.994	103.974	20.058	-0.710	0.495
545.500	355.513	80.006	19.994	103.980	20.058	-0.710	0.472
546.000	355.815	80.007	19.993	103.987	20.055	-0.508	0.504
546.500	356.050	80.005	19.994	103.989	20.059	-0.752	0.537
547.000	356.288	80.005	19.995	103.982	20.059	-0.749	0.505
547.500	356.562	80.005	19.994	103.975	20.058	-0.730	0.493
548.000	356.787	80.004	19.994	103.970	20.058	-0.681	0.506
548.500	357.056	80.006	19.993	103.963	20.058	-0.730	0.497
549.000	357.284	80.005	19.994	103.959	20.060	-0.826	0.496
549.500	357.561	80.004	19.994	103.959	20.057	-0.618	0.501
550.000	357.794	80.005	19.993	103.963	20.057	-0.629	0.507
550.500	357.995	80.007	19.994	103.963	20.056	-0.589	0.472
551.000	358.287	80.004	19.995	103.965	20.057	-0.639	0.464
551.500	358.528	80.004	19.994	103.969	20.055	-0.506	0.513
552.000	358.774	80.002	19.994	103.970	20.056	-0.576	0.510
552.500	359.019	80.003	19.995	103.965	20.057	-0.672	0.489
553.000	359.264	80.002	19.994	103.964	20.057	-0.626	0.491
553.500	359.501	80.002	19.994	103.963	20.059	-0.763	0.487
554.000	359.791	80.003	19.994	103.962	20.057	-0.613	0.505
554.500	359.997	80.002	19.995	103.962	20.055	-0.494	0.511
555.000	360.255	80.003	19.994	103.964	20.057	-0.635	0.479
555.500	360.523	80.003	19.994	103.963	20.060	-0.864	0.495
556.000	360.782	80.003	19.995	103.962	20.059	-0.763	0.526
556.500	361.015	80.002	19.994	103.960	20.058	-0.734	0.509
557.000	361.295	80.003	19.994	103.959	20.059	-0.750	0.503
557.500	361.560	80.002	19.994	103.958	20.057	-0.644	0.530
558.000	361.769	80.004	19.995	103.959	20.058	-0.684	0.510
558.500	362.010	80.003	19.993	103.959	20.059	-0.785	0.462
559.000	362.263	80.003	19.995	103.961	20.058	-0.684	0.472
559.500	362.517	80.002	19.994	103.967	20.060	-0.875	0.500
560.000	362.751	80.002	19.994	103.966	20.059	-0.760	0.497
560.500	363.006	80.002	19.995	103.966	20.059	-0.785	0.488
561.000	363.318	80.002	19.995	103.966	20.060	-0.851	0.528
561.500	363.536	80.001	19.994	103.968	20.062	-0.952	0.549
562.000	363.811	80.004	19.995	103.965	20.063	-1.018	0.512
562.500	364.025	80.002	19.995	103.969	20.061	-0.932	0.491
563.000	364.275	80.002	19.994	103.971	20.060	-0.864	0.476
563.500	364.535	80.002	19.995	103.972	20.061	-0.915	0.487
564.000	364.785	80.003	19.993	103.968	20.063	-1.055	0.510
564.500	365.026	80.005	19.993	103.970	20.060	-0.871	0.500
565.001	365.263	80.002	19.994	103.968	20.063	-1.018	0.485
565.500	365.515	80.002	19.994	103.968	20.061	-0.906	0.484
566.000	365.791	80.003	19.994	103.968	20.062	-0.974	0.509
566.500	366.072	80.003	19.994	103.969	20.061	-0.903	0.542
567.000	366.279	80.004	19.994	103.966	20.061	-0.912	0.523
567.500	366.557	80.003	19.993	103.964	20.061	-0.908	0.487
568.000	366.799	80.003	19.994	103.963	20.063	-1.070	0.502
568.501	367.045	80.003	19.994	103.962	20.062	-0.945	0.504
569.000	367.296	80.003	19.994	103.963	20.063	-1.033	0.493
569.500	367.585	80.003	19.994	103.960	20.063	-1.053	0.519
570.000	367.800	80.002	19.994	103.959	20.063	-1.018	0.522
570.500	368.033	80.003	19.994	103.960	20.061	-0.912	0.476
571.000	368.312	80.004	19.994	103.960	20.063	-1.046	0.480
571.500	368.580	80.003	19.995	103.957	20.062	-0.961	0.529
572.000	368.808	80.004	19.995	103.957	20.065	-1.182	0.521
572.500	369.072	80.002	19.993	103.957	20.061	-0.908	0.494
573.000	369.322	80.004	19.995	103.956	20.062	-0.967	0.503
573.500	369.589	80.004	19.993	103.955	20.060	-0.868	0.515
574.000	369.837	80.002	19.994	103.955	20.063	-1.037	0.516
574.500	370.060	80.003	19.995	103.955	20.060	-0.837	0.493
575.000	370.361	80.003	19.994	103.954	20.061	-0.908	0.497
575.500	370.598	80.003	19.994	103.955	20.057	-0.624	0.531
576.000	370.847	80.003	19.995	103.956	20.059	-0.760	0.512
576.500	371.101	80.004	19.995	103.956	20.061	-0.934	0.495
577.000	371.341	80.003	19.995	103.957	20.060	-0.844	0.499
577.500	371.563	80.003	19.994	103.963	20.059	-0.796	0.478
578.000	371.827	80.003	19.994	103.967	20.061	-0.892	0.474
578.500	372.095	80.003	19.994	103.967	20.062	-0.954	0.509
579.000	372.314	80.004	19.994	103.968	20.059	-0.802	0.509
579.500	372.600	80.004	19.995	103.968	20.061	-0.937	0.496
580.000	372.855	80.004	19.994	103.966	20.059	-0.796	0.523
580.500	373.082	80.002	19.996	103.961	20.060	-0.837	0.511
581.000	373.367	80.002	19.996	103.961	20.063	-1.035	0.497
581.500	373.610	80.004	19.997	103.967	20.061	-0.943	0.520
582.000	373.865	80.004	19.995	103.968	20.060	-0.872	0.513
582.500	374.110	80.003	19.995	103.967	20.064	-1.125	0.499
583.000	374.378	80.003	19.995	103.972	20.064	-1.083	0.506
583.500	374.638	80.002	19.995	103.969	20.064	-1.138	0.521
584.000	374.882	80.002	19.995	103.963	20.063	-1.066	0.516
584.500	375.127	80.002	19.995	103.961	20.062	-0.987	0.496
585.000	375.375	80.002	19.996	103.959	20.061	-0.932	0.491
585.500	375.591	80.002	19.996	103.954	20.061	-0.934	0.479
586.000	375.852	80.002	19.994	103.954	20.062	-1.007	0.471
586.500	376.083	80.002	19.994	103.954	20.062	-0.998	0.484
587.000	376.366	80.002	19.995	103.954	20.062	-0.987	0.503
587.500	376.619	80.004	19.995	103.955	20.059	-0.752	0.525
588.000	376.839	80.003	19.994	103.956	20.063	-1.044	0.505
588.500	377.114	80.002	19.996	103.956	20.061	-0.899	0.484
589.000	377.312	80.003	19.994	103.957	20.060	-0.868	0.484
589.500	377.595	80.003	19.996	103.957	20.060	-0.824	0.477
590.000	377.842	80.003	19.994	103.956	20.061	-0.905	0.505
590.500	378.103	80.003	19.994	103.956	20.062	-1.004	0.519
591.000	378.370	80.003	19.994	103.956	20.063	-1.031	0.518
591.500	378.610	80.003	19.994	103.959	20.058	-0.728	0.517
592.000	378.855	80.003	19.993	103.964	20.063	-1.020	0.496
592.500	379.080	80.003	19.993	103.967	20.062	-0.958	0.478
593.000	379.346	80.003	19.994	103.968	20.064	-1.119	0.481
593.500	379.574	80.004	19.994	103.968	20.061	-0.914	0.492
594.000	379.845	80.003	19.994	103.968	20.063	-1.070	0.496
594.500	380.107	80.002	19.995	103.963	20.063	-1.057	0.516
595.000	380.346	80.004	19.994	103.961	20.065	-1.187	0.517
595.500	380.619	80.003	19.993	103.960	20.062	-0.956	0.507
596.000	380.866	80.005	19.994	103.961	20.064	-1.130	0.516
596.500	381.103	80.005	19.994	103.958	20.063	-1.037	0.502
597.000	381.376	80.004	19.994	103.958	20.064	-1.092	0.498
597.500	381.614	80.005	19.994	103.958	20.061	-0.939	0.511
598.000	381.853	80.004	19.994	103.958	20.064	-1.092	0.494
598.501	382.088	80.005	19.993	103.957	20.062	-1.004	0.475
599.000	382.368	80.004	19.994	103.958	20.062	-0.996	0.494
599.500	382.617	80.005	19.995	103.963	20.061	-0.905	0.522
600.000	382.860	80.005	19.994	103.966	20.063	-1.055	0.511
600.500	383.123	80.004	19.993	103.968	20.062	-0.991	0.499
601.000	383.341	80.004	19.993	103.968	20.062	-0.989	0.493
601.500	383.591	80.005	19.993	103.970	20.065	-1.156	0.475
602.000	383.826	80.005	19.994	103.968	20.066	-1.268	0.476
602.500	384.133	80.005	19.994	103.968	20.064	-1.094	0.514
603.000	384.357	80.005	19.994	103.967	20.063	-1.071	0.537
603.500	384.649	80.005	19.994	103.968	20.060	-0.835	0.523
604.000	384.888	80.005	19.994	103.970	20.065	-1.147	0.523
604.500	385.154	80.003	19.994	103.975	20.066	-1.262	0.518
605.000	385.379	80.005	19.994	103.977	20.068	-1.349	0.499
605.500	385.629	80.003	19.993	103.982	20.068	-1.387	0.483
606.000	385.881	80.003	19.993	103.987	20.065	-1.184	0.488
606.500	386.159	80.004	19.993	103.988	20.064	-1.121	0.516
607.000	386.387	80.003	19.995	103.983	20.066	-1.248	0.518
607.500	386.619	80.004	19.994	103.979	20.065	-1.211	0.483
608.000	386.916	80.005	19.993	103.975	20.064	-1.117	0.494
608.500	387.153	80.003	19.994	103.972	20.064	-1.104	0.531
609.000	387.398	80.005	19.994	103.970	20.064	-1.125	0.508
609.500	387.692	80.003	19.994	103.971	20.061	-0.897	0.511
610.000	387.936	80.005	19.994	103.973	20.064	-1.081	0.538
610.500	388.162	80.005	19.994	103.971	20.064	-1.123	0.504
611.000	388.447	80.003	19.994	103.967	20.062	-1.004	0.490
611.500	388.665	80.004	19.994	103.965	20.063	-1.040	0.507
612.000	388.893	80.003	19.993	103.966	20.066	-1.226	0.475
612.500	389.143	80.004	19.995	103.964	20.064	-1.134	0.462
613.000	389.388	80.004	19.994	103.964	20.068	-1.360	0.487
613.500	389.711	80.004	19.994	103.964	20.064	-1.095	0.532
614.000	389.938	80.004	19.994	103.962	20.062	-0.963	0.560
614.500	390.168	80.003	19.994	103.960	20.065	-1.172	0.504
615.000	390.443	80.003	19.995	103.962	20.062	-0.974	0.481
615.500	390.660	80.004	19.993	103.968	20.060	-0.816	0.498
616.000	390.948	80.004	19.995	103.975	20.064	-1.082	0.499
616.500	391.227	80.005	19.993	103.976	20.062	-1.011	0.536
617.000	391.456	80.003	19.994	103.976	20.063	-1.060	0.537
617.500	391.731	80.006	19.993	103.972	20.064	-1.090	0.506
618.001	391.991	80.006	19.993	103.965	20.065	-1.150	0.520
618.501	392.241	80.006	19.994	103.958	20.063	-1.044	0.522
619.000	392.495	80.006	19.994	103.956	20.066	-1.270	0.507
619.500	392.752	80.006	19.993	103.954	20.065	-1.161	0.507
620.000	392.958	80.005	19.994	103.957	20.063	-1.073	0.487
620.500	393.277	80.005	19.994	103.960	20.064	-1.084	0.494
621.000	393.569	80.006	19.994	103.960	20.065	-1.187	0.568
621.500	393.795	80.005	19.994	103.961	20.065	-1.165	0.565
622.000	394.095	80.006	19.994	103.961	20.065	-1.147	0.522
622.500	394.351	80.007	19.994	103.961	20.069	-1.449	0.541
623.000	394.569	80.007	19.994	103.959	20.064	-1.112	0.515
623.500	394.870	80.006	19.993	103.960	20.065	-1.198	0.497
624.000	395.106	80.006	19.994	103.961	20.064	-1.082	0.528
624.500	395.388	80.007	19.994	103.960	20.064	-1.137	0.527
625.000	395.642	80.007	19.995	103.957	20.066	-1.238	0.527
625.500	395.911	80.008	19.994	103.956	20.068	-1.348	0.529
626.000	396.175	80.008	19.993	103.956	20.065	-1.185	0.527
626.500	396.410	80.007	19.993	103.955	20.065	-1.185	0.516
627.000	396.695	80.007	19.993	103.955	20.066	-1.220	0.510
627.500	396.934	80.006	19.993	103.956	20.063	-1.020	0.522
628.000	397.180	80.007	19.993	103.956	20.066	-1.277	0.504
628.500	397.426	80.005	19.993	103.959	20.064	-1.123	0.488
629.000	397.679	80.007	19.994	103.962	20.066	-1.279	0.495
629.500	397.948	80.005	19.993	103.962	20.066	-1.268	0.510
630.000	398.207	80.007	19.994	103.966	20.067	-1.295	0.525
630.500	398.458	80.006	19.993	103.967	20.063	-1.022	0.519
631.000	398.732	80.006	19.994	103.962	20.066	-1.262	0.517
631.500	398.998	80.007	19.993	103.959	20.064	-1.143	0.532
632.000	399.251	80.006	19.994	103.959	20.065	-1.213	0.530
632.500	399.529	80.005	19.994	103.956	20.064	-1.141	0.525
633.000	399.779	80.005	19.994	103.955	20.067	-1.282	0.530
633.500	400.047	80.004	19.995	103.955	20.066	-1.216	0.523
634.000	400.290	80.004	19.994	103.955	20.066	-1.275	0.515
634.500	400.557	80.005	19.995	103.954	20.065	-1.176	0.510
635.000	400.826	80.004	19.993	103.954	20.067	-1.343	0.523
635.500	401.081	80.004	19.994	103.954	20.066	-1.238	0.530
636.000	401.377	80.004	19.994	103.954	20.067	-1.293	0.538
636.500	401.633	80.004	19.994	103.954	20.066	-1.279	0.552
637.000	401.869	80.005	19.995	103.957	20.067	-1.319	0.522
637.500	402.127	80.004	19.994	103.958	20.067	-1.286	0.493
638.000	402.377	80.004	19.993	103.958	20.065	-1.187	0.501
638.500	402.615	80.004	19.993	103.957	20.068	-1.378	0.498
639.000	402.884	80.004	19.994	103.957	20.066	-1.257	0.498
639.500	403.162	80.004	19.994	103.954	20.068	-1.365	0.527
640.000	403.380	80.002	19.993	103.953	20.068	-1.374	0.521
640.500	403.678	80.003	19.995	103.953	20.067	-1.343	0.506
641.000	403.909	80.004	19.995	103.954	20.069	-1.440	0.522
641.500	404.192	80.005	19.994	103.953	20.067	-1.286	0.522
642.000	404.454	80.003	19.994	103.954	20.068	-1.396	0.530
642.500	404.725	80.004	19.995	103.955	20.068	-1.414	0.539
643.000	404.960	80.005	19.994	103.955	20.068	-1.352	0.519
643.500	405.205	80.003	19.995	103.955	20.068	-1.348	0.493
644.000	405.472	80.004	19.994	103.955	20.070	-1.495	0.496
644.500	405.743	80.003	19.995	103.954	20.067	-1.293	0.525
645.000	406.026	80.003	19.994	103.953	20.070	-1.539	0.546
645.500	406.310	80.004	19.994	103.953	20.068	-1.354	0.560
646.000	406.535	80.004	19.995	103.954	20.065	-1.209	0.538
646.500	406.776	80.002	19.994	103.953	20.068	-1.411	0.487
647.000	407.047	80.003	19.994	103.954	20.071	-1.563	0.489
647.500	407.288	80.003	19.994	103.954	20.068	-1.380	0.512
648.000	407.552	80.004	19.994	103.954	20.067	-1.297	0.509
648.500	407.826	80.003	19.995	103.954	20.072	-1.666	0.522
649.000	408.087	80.003	19.995	103.956	20.071	-1.592	0.536
649.500	408.316	80.003	19.994	103.956	20.072	-1.635	0.513
650.000	408.564	80.003	19.995	103.956	20.071	-1.561	0.483
650.500	408.851	80.003	19.994	103.957	20.070	-1.482	0.506
651.000	409.108	80.003	19.993	103.957	20.068	-1.370	0.540
651.500	409.380	80.005	19.995	103.957	20.069	-1.424	0.536
652.000	409.611	80.004	19.994	103.956	20.072	-1.627	0.516
652.500	409.889	80.004	19.994	103.956	20.070	-1.523	0.506
653.000	410.123	80.003	19.994	103.956	20.068	-1.354	0.511
653.500	410.438	80.004	19.994	103.955	20.070	-1.543	0.530
654.000	410.642	80.004	19.993	103.951	20.072	-1.618	0.534
654.500	410.932	80.004	19.994	103.951	20.073	-1.710	0.506
655.000	411.190	80.004	19.994	103.951	20.071	-1.561	0.521
655.500	411.446	80.002	19.994	103.952	20.072	-1.638	0.531
656.000	411.688	80.004	19.995	103.957	20.073	-1.717	0.506
656.500	411.912	80.002	19.993	103.962	20.071	-1.578	0.482
657.000	412.203	80.004	19.994	103.962	20.070	-1.526	0.490
657.500	412.464	80.004	19.994	103.962	20.070	-1.528	0.534
658.000	412.734	80.002	19.994	103.962	20.070	-1.506	0.542
658.500	412.979	80.003	19.994	103.958	20.068	-1.372	0.523
659.000	413.232	80.002	19.993	103.957	20.068	-1.374	0.506
659.500	413.477	80.005	19.992	103.957	20.067	-1.323	0.498
660.000	413.677	80.002	19.995	103.956	20.070	-1.536	0.471
660.500	413.965	80.003	19.994	103.956	20.070	-1.508	0.467
661.000	414.234	80.002	19.994	103.955	20.069	-1.471	0.523
661.500	414.469	80.002	19.994	103.955	20.068	-1.378	0.531
662.000	414.741	80.003	19.994	103.955	20.070	-1.495	0.506
662.500	414.998	80.004	19.994	103.956	20.067	-1.282	0.518
663.000	415.277	80.003	19.994	103.958	20.067	-1.337	0.533
663.500	415.504	80.003	19.994	103.958	20.070	-1.490	0.521
664.000	415.767	80.003	19.995	103.958	20.068	-1.374	0.498
664.500	416.033	80.002	19.994	103.958	20.069	-1.458	0.509
665.000	416.303	80.003	19.995	103.958	20.070	-1.503	0.532
665.500	416.523	80.001	19.995	103.956	20.069	-1.431	0.513
666.000	416.796	80.002	19.993	103.957	20.068	-1.370	0.491
666.500	417.065	80.002	19.994	103.957	20.069	-1.442	0.518
667.000	417.308	80.001	19.995	103.957	20.070	-1.504	0.527
667.500	417.571	80.003	19.995	103.958	20.069	-1.455	0.509
668.000	417.847	80.001	19.995	103.958	20.071	-1.561	0.522
668.500	418.113	80.001	19.994	103.958	20.071	-1.570	0.540
669.000	418.361	80.003	19.995	103.958	20.070	-1.482	0.528
669.500	418.597	80.002	19.994	103.959	20.067	-1.330	0.499
670.000	418.883	80.002	19.995	103.958	20.067	-1.328	0.503
670.500	419.155	80.003	19.995	103.958	20.067	-1.310	0.540
671.000	419.367	80.001	19.994	103.959	20.069	-1.418	0.521
671.500	419.650	80.003	19.995	103.958	20.071	-1.614	0.490
672.000	419.880	80.002	19.994	103.958	20.072	-1.633	0.504
672.500	420.131	80.002	19.995	103.957	20.071	-1.583	0.497
673.000	420.393	80.003	19.996	103.956	20.068	-1.396	0.496
673.500	420.656	80.002	19.994	103.955	20.071	-1.550	0.519
674.000	420.915	80.003	19.995	103.955	20.070	-1.503	0.524
674.500	421.161	80.003	19.994	103.952	20.069	-1.462	0.514
675.000	421.428	80.004	19.995	103.952	20.070	-1.501	0.509
675.500	421.663	80.003	19.995	103.952	20.071	-1.556	0.508
676.000	421.937	80.004	19.994	103.952	20.072	-1.651	0.505
676.500	422.192	80.005	19.994	103.952	20.072	-1.660	0.519
677.000	422.434	80.005	19.995	103.955	20.072	-1.642	0.513
677.500	422.684	80.004	19.995	103.955	20.073	-1.686	0.495
678.000	422.934	80.004	19.995	103.954	20.073	-1.712	0.496
678.500	423.198	80.005	19.996	103.954	20.075	-1.836	0.507
679.000	423.463	80.005	19.994	103.951	20.074	-1.772	0.521
679.500	423.733	80.005	19.995	103.951	20.074	-1.813	0.532
680.000	423.959	80.004	19.995	103.950	20.074	-1.780	0.515
680.500	424.220	80.005	19.995	103.950	20.071	-1.600	0.492
681.000	424.506	80.005	19.994	103.950	20.071	-1.600	0.518
681.500	424.757	80.005	19.994	103.951	20.071	-1.561	0.542
682.000	425.012	80.006	19.995	103.951	20.071	-1.614	0.521
682.501	425.247	80.006	19.994	103.950	20.072	-1.669	0.498
683.000	425.527	80.006	19.994	103.951	20.071	-1.591	0.503
683.500	425.735	80.004	19.993	103.951	20.071	-1.598	0.502
684.000	426.035	80.005	19.994	103.951	20.071	-1.614	0.498
684.500	426.273	80.005	19.994	103.952	20.073	-1.695	0.523
685.000	426.512	80.005	19.993	103.953	20.072	-1.673	0.507
685.500	426.787	80.005	19.995	103.953	20.073	-1.732	0.495
686.000	427.062	80.004	19.995	103.953	20.072	-1.627	0.532
686.500	427.293	80.006	19.993	103.953	20.073	-1.737	0.528
687.000	427.572	80.006	19.993	103.953	20.073	-1.724	0.508
687.500	427.798	80.004	19.993	103.953	20.075	-1.875	0.507
688.000	428.041	80.004	19.993	103.951	20.076	-1.910	0.487
688.500	428.306	80.005	19.994	103.949	20.072	-1.638	0.489
689.000	428.575	80.005	19.994	103.948	20.074	-1.781	0.521
689.500	428.812	80.004	19.994	103.948	20.073	-1.730	0.520
690.000	429.094	80.004	19.992	103.949	20.075	-1.835	0.512
690.500	429.345	80.004	19.994	103.950	20.072	-1.675	0.526
691.000	429.593	80.005	19.994	103.952	20.073	-1.728	0.516
691.500	429.855	80.003	19.994	103.953	20.073	-1.702	0.505
692.000	430.095	80.005	19.994	103.953	20.071	-1.569	0.506
692.500	430.340	80.004	19.994	103.953	20.071	-1.585	0.494
693.000	430.589	80.006	19.994	103.953	20.074	-1.794	0.490
693.500	430.842	80.006	19.994	103.953	20.072	-1.638	0.498
694.000	431.093	80.004	19.994	103.953	20.073	-1.704	0.502
694.500	431.345	80.005	19.994	103.954	20.072	-1.638	0.504
695.000	431.599	80.005	19.995	103.954	20.070	-1.491	0.505
695.500	431.857	80.004	19.993	103.954	20.072	-1.666	0.509
696.000	432.126	80.005	19.994	103.954	20.071	-1.614	0.519
696.500	432.400	80.004	19.994	103.954	20.073	-1.695	0.535
697.000	432.617	80.005	19.994	103.953	20.072	-1.625	0.517
697.500	432.874	80.005	19.993	103.952	20.072	-1.624	0.482
698.000	433.127	80.004	19.993	103.952	20.074	-1.798	0.492
698.500	433.412	80.006	19.993	103.952	20.075	-1.880	0.524
699.000	433.645	80.004	19.993	103.951	20.074	-1.798	0.528
699.500	433.944	80.005	19.994	103.951	20.077	-1.972	0.526
700.000	434.191	80.005	19.992	103.952	20.072	-1.649	0.539
700.500	434.460	80.006	19.995	103.952	20.075	-1.882	0.531
701.000	434.693	80.006	19.995	103.951	20.073	-1.746	0.509
701.500	434.951	80.005	19.994	103.951	20.073	-1.717	0.497
702.000	435.196	80.006	19.995	103.952	20.074	-1.758	0.497
702.500	435.456	80.006	19.994	103.953	20.072	-1.662	0.504
703.000	435.705	80.006	19.994	103.953	20.076	-1.950	0.507
703.500	435.961	80.006	19.993	103.953	20.074	-1.754	0.507
704.000	436.214	80.006	19.994	103.953	20.076	-1.921	0.507
704.500	436.486	80.007	19.993	103.953	20.074	-1.805	0.517
705.000	436.722	80.005	19.994	103.952	20.074	-1.809	0.516
705.500	436.993	80.006	19.994	103.947	20.075	-1.851	0.507
706.000	437.214	80.005	19.994	103.946	20.070	-1.508	0.499
706.500	437.443	80.006	19.994	103.946	20.071	-1.561	0.471
707.000	437.713	80.005	19.994	103.945	20.072	-1.616	0.475
707.500	437.972	80.005	19.993	103.945	20.075	-1.820	0.514
708.000	438.261	80.007	19.993	103.950	20.073	-1.743	0.538
708.500	438.486	80.005	19.993	103.951	20.072	-1.646	0.531
709.000	438.715	80.007	19.994	103.951	20.072	-1.642	0.484
709.500	438.989	80.006	19.993	103.951	20.073	-1.726	0.478
710.000	439.246	80.006	19.993	103.953	20.072	-1.636	0.517
710.500	439.513	80.005	19.992	103.951	20.070	-1.530	0.528
711.000	439.700	80.004	19.993	103.951	20.072	-1.651	0.489
711.500	440.004	80.005	19.993	103.950	20.074	-1.756	0.473
712.000	440.265	80.004	19.992	103.950	20.071	-1.559	0.528
712.500	440.551	80.005	19.993	103.950	20.073	-1.721	0.556
713.000	440.754	80.005	19.993	103.951	20.071	-1.578	0.518
713.500	441.027	80.003	19.993	103.951	20.072	-1.631	0.482
714.000	441.269	80.005	19.994	103.951	20.072	-1.647	0.496
714.500	441.523	80.004	19.994	103.952	20.074	-1.752	0.506
715.000	441.783	80.003	19.993	103.952	20.072	-1.682	0.505
715.500	442.049	80.004	19.992	103.951	20.073	-1.743	0.520
716.000	442.284	80.003	19.994	103.953	20.073	-1.701	0.514
716.500	442.532	80.004	19.994	103.951	20.074	-1.783	0.492
717.000	442.810	80.004	19.994	103.949	20.074	-1.769	0.505
717.500	443.074	80.004	19.993	103.946	20.074	-1.807	0.534
718.000	443.279	80.005	19.992	103.946	20.072	-1.668	0.505
718.500	443.582	80.003	19.994	103.946	20.074	-1.792	0.488
719.000	443.765	80.004	19.993	103.950	20.075	-1.820	0.497
719.500	444.001	80.004	19.993	103.952	20.074	-1.789	0.453
720.000	444.249	80.005	19.994	103.954	20.071	-1.587	0.451
720.500	444.508	80.004	19.994	103.953	20.072	-1.682	0.495
721.000	444.791	80.003	19.994	103.952	20.071	-1.596	0.525
721.500	445.030	80.004	19.994	103.950	20.072	-1.660	0.532
722.000	445.250	80.004	19.993	103.949	20.073	-1.748	0.490
722.500	445.479	80.004	19.994	103.949	20.072	-1.624	0.454
723.000	445.752	80.002	19.995	103.949	20.070	-1.530	0.476
723.500	446.014	80.004	19.993	103.950	20.070	-1.548	0.518
724.000	446.240	80.004	19.994	103.952	20.072	-1.625	0.511
724.500	446.484	80.002	19.993	103.953	20.074	-1.805	0.479
725.000	446.748	80.004	19.992	103.953	20.073	-1.684	0.489
725.501	447.000	80.003	19.993	103.954	20.076	-1.890	0.512
726.000	447.195	80.003	19.994	103.953	20.074	-1.780	0.481
726.500	447.473	80.003	19.993	103.952	20.073	-1.726	0.460
727.000	447.743	80.005	19.993	103.952	20.071	-1.587	0.511
727.500	447.969	80.004	19.993	103.954	20.073	-1.710	0.522
728.000	448.229	80.003	19.993	103.953	20.074	-1.814	0.491
728.500	448.512	80.003	19.993	103.954	20.074	-1.802	0.515
729.000	448.761	80.003	19.993	103.952	20.072	-1.673	0.537
729.500	448.998	80.006	19.993	103.950	20.074	-1.767	0.509
730.000	449.238	80.004	19.993	103.949	20.073	-1.713	0.482
730.500	449.512	80.004	19.992	103.950	20.072	-1.625	0.495
731.000	449.756	80.003	19.994	103.949	20.072	-1.644	0.515
731.500	449.999	80.004	19.994	103.952	20.074	-1.774	0.502
732.000	450.245	80.003	19.994	103.955	20.073	-1.737	0.488
732.500	450.487	80.004	19.993	103.955	20.074	-1.772	0.489
733.000	450.730	80.004	19.994	103.956	20.070	-1.519	0.487
733.500	450.992	80.003	19.995	103.955	20.075	-1.820	0.495
734.000	451.241	80.004	19.994	103.954	20.074	-1.792	0.508
734.500	451.469	80.004	19.994	103.952	20.075	-1.838	0.494
735.000	451.727	80.003	19.994	103.950	20.073	-1.699	0.482
735.500	451.989	80.004	19.993	103.949	20.074	-1.776	0.504
736.000	452.226	80.003	19.994	103.950	20.071	-1.583	0.510
736.500	452.487	80.004	19.993	103.950	20.073	-1.724	0.498
737.000	452.690	80.003	19.993	103.952	20.072	-1.616	0.481
737.500	452.962	80.003	19.994	103.953	20.073	-1.715	0.469
738.000	453.195	80.003	19.994	103.953	20.073	-1.734	0.490
738.500	453.474	80.004	19.993	103.953	20.077	-2.000	0.509
739.000	453.750	80.004	19.994	103.952	20.072	-1.664	0.534
739.500	453.964	80.004	19.994	103.951	20.075	-1.822	0.523
740.000	454.220	80.003	19.993	103.952	20.073	-1.745	0.481
740.500	454.492	80.004	19.994	103.951	20.073	-1.721	0.499
741.000	454.723	80.003	19.994	103.950	20.075	-1.827	0.515
741.500	454.959	80.003	19.994	103.951	20.071	-1.600	0.485
742.000	455.205	80.004	19.995	103.951	20.072	-1.649	0.475
742.500	455.486	80.004	19.994	103.949	20.070	-1.547	0.505
743.000	455.702	80.004	19.993	103.949	20.074	-1.796	0.512
743.500	455.941	80.005	19.994	103.948	20.073	-1.723	0.476
744.000	456.226	80.003	19.993	103.947	20.074	-1.756	0.489
744.500	456.462	80.004	19.993	103.948	20.077	-1.963	0.523
745.000	456.715	80.004	19.994	103.948	20.075	-1.834	0.506
745.500	456.943	80.004	19.994	103.948	20.073	-1.710	0.485
746.000	457.213	80.004	19.995	103.950	20.074	-1.759	0.489
746.500	457.454	80.004	19.993	103.951	20.073	-1.730	0.504
747.000	457.699	80.004	19.994	103.949	20.076	-1.937	0.498
747.500	457.974	80.004	19.994	103.944	20.073	-1.743	0.503
748.000	458.168	80.003	19.994	103.944	20.075	-1.853	0.494
748.500	458.438	80.003	19.994	103.943	20.077	-1.965	0.467
749.000	458.702	80.004	19.993	103.943	20.073	-1.739	0.499
749.500	458.954	80.004	19.993	103.945	20.077	-2.003	0.525
750.000	459.178	80.003	19.993	103.951	20.073	-1.750	0.496
750.500	459.469	80.004	19.994	103.952	20.074	-1.780	0.495
751.000	459.699	80.003	19.994	103.952	20.076	-1.928	0.518
751.500	460.009	80.004	19.994	103.952	20.075	-1.842	0.531
752.000	460.219	80.003	19.994	103.951	20.076	-1.921	0.530
752.500	460.481	80.003	19.995	103.951	20.077	-2.001	0.496
753.000	460.693	80.003	19.994	103.952	20.076	-1.919	0.473
753.500	460.973	80.003	19.992	103.951	20.080	-2.194	0.483
754.000	461.214	80.004	19.994	103.949	20.078	-2.060	0.506
754.500	461.483	80.004	19.994	103.946	20.074	-1.763	0.516
755.000	461.717	80.003	19.994	103.944	20.076	-1.943	0.507
755.500	461.957	80.003	19.994	103.943	20.078	-2.046	0.488
756.000	462.212	80.003	19.994	103.944	20.076	-1.910	0.484
756.500	462.503	80.004	19.994	103.947	20.072	-1.646	0.521
757.000	462.754	80.004	19.993	103.950	20.074	-1.778	0.544
757.500	462.991	80.004	19.994	103.952	20.073	-1.713	0.515
758.000	463.276	80.004	19.994	103.952	20.078	-2.043	0.505
758.500	463.539	80.004	19.994	103.951	20.075	-1.862	0.535
759.000	463.783	80.005	19.994	103.950	20.076	-1.888	0.527
759.500	464.035	80.005	19.993	103.949	20.079	-2.132	0.502
760.000	464.300	80.003	19.993	103.948	20.073	-1.688	0.507
760.500	464.576	80.005	19.995	103.949	20.074	-1.772	0.529
761.000	464.794	80.005	19.994	103.952	20.075	-1.840	0.517
761.500	465.032	80.003	19.996	103.955	20.078	-2.045	0.475
762.000	465.329	80.005	19.995	103.956	20.075	-1.853	0.495
762.500	465.590	80.005	19.996	103.956	20.074	-1.794	0.547
763.000	465.822	80.006	19.994	103.954	20.075	-1.825	0.526
763.500	466.117	80.005	19.994	103.945	20.077	-2.012	0.510
764.000	466.366	80.004	19.995	103.937	20.076	-1.899	0.535
764.500	466.595	80.004	19.994	103.936	20.077	-1.990	0.511
765.000	466.901	80.003	19.995	103.936	20.077	-1.961	0.507
765.500	467.138	80.004	19.994	103.937	20.076	-1.915	0.539
766.000	467.385	80.004	19.994	103.944	20.077	-2.005	0.513
766.500	467.673	80.005	19.994	103.950	20.077	-2.018	0.509
767.000	467.944	80.003	19.994	103.951	20.075	-1.869	0.547
767.500	468.193	80.004	19.994	103.951	20.074	-1.800	0.540
768.000	468.471	80.004	19.995	103.947	20.075	-1.879	0.523
768.500	468.688	80.003	19.995	103.941	20.078	-2.031	0.511
769.000	468.953	80.003	19.994	103.938	20.077	-1.969	0.488
769.500	469.218	80.004	19.994	103.938	20.074	-1.765	0.506
770.000	469.484	80.004	19.994	103.938	20.075	-1.877	0.531
770.500	469.752	80.004	19.995	103.942	20.079	-2.106	0.533
771.000	470.017	80.004	19.995	103.948	20.077	-1.987	0.533
771.500	470.294	80.004	19.995	103.950	20.075	-1.864	0.537
772.000	470.517	80.004	19.994	103.947	20.078	-2.071	0.521
772.500	470.825	80.003	19.994	103.945	20.077	-1.963	0.516
773.000	471.092	80.003	19.994	103.945	20.079	-2.121	0.553
773.500	471.297	80.004	19.994	103.945	20.079	-2.152	0.523
774.000	471.580	80.003	19.994	103.947	20.078	-2.082	0.480
774.500	471.820	80.005	19.994	103.949	20.079	-2.134	0.505
775.000	472.110	80.004	19.994	103.953	20.078	-2.086	0.527
775.500	472.355	80.003	19.993	103.951	20.078	-2.029	0.533
776.000	472.641	80.005	19.994	103.951	20.077	-1.989	0.533
776.500	472.871	80.004	19.994	103.950	20.077	-1.985	0.524
777.000	473.171	80.005	19.994	103.951	20.076	-1.930	0.523
777.500	473.442	80.005	19.994	103.951	20.077	-1.967	0.550
778.000	473.712	80.005	19.994	103.953	20.077	-2.002	0.556
778.500	473.982	80.005	19.993	103.954	20.077	-1.967	0.541
779.000	474.244	80.005	19.994	103.955	20.075	-1.862	0.536
779.500	474.529	80.005	19.993	103.955	20.079	-2.091	0.539
780.000	474.803	80.006	19.993	103.954	20.080	-2.183	0.553
780.500	475.055	80.005	19.993	103.953	20.080	-2.198	0.543
781.000	475.297	80.006	19.994	103.949	20.079	-2.093	0.510
781.500	475.559	80.005	19.994	103.948	20.079	-2.145	0.499
782.000	475.837	80.005	19.993	103.947	20.078	-2.077	0.522
782.500	476.091	80.006	19.993	103.947	20.078	-2.035	0.536
783.000	476.364	80.006	19.992	103.948	20.080	-2.174	0.529
783.500	476.621	80.005	19.993	103.952	20.073	-1.745	0.528
784.000	476.872	80.007	19.993	103.953	20.077	-1.990	0.519
784.500	477.145	80.006	19.993	103.953	20.078	-2.053	0.516
785.000	477.413	80.006	19.993	103.954	20.078	-2.082	0.532
785.500	477.684	80.006	19.994	103.955	20.080	-2.216	0.540
786.000	477.943	80.006	19.996	103.955	20.079	-2.122	0.535
786.500	478.169	80.007	19.994	103.955	20.076	-1.893	0.508
787.000	478.445	80.005	19.994	103.955	20.078	-2.086	0.493
787.500	478.736	80.007	19.994	103.955	20.079	-2.150	0.534
788.000	478.992	80.006	19.993	103.955	20.077	-1.992	0.557
788.500	479.270	80.007	19.994	103.954	20.079	-2.089	0.541
789.000	479.507	80.006	19.994	103.953	20.080	-2.175	0.524
789.500	479.761	80.005	19.993	103.953	20.079	-2.144	0.502
790.000	480.023	80.006	19.993	103.953	20.078	-2.079	0.504
790.500	480.303	80.005	19.993	103.952	20.080	-2.168	0.530
791.000	480.555	80.005	19.993	103.949	20.078	-2.031	0.537
791.500	480.781	80.004	19.993	103.949	20.079	-2.102	0.505
792.000	481.089	80.005	19.994	103.949	20.082	-2.345	0.506
792.500	481.350	80.004	19.993	103.949	20.079	-2.135	0.551
793.000	481.590	80.004	19.993	103.950	20.082	-2.352	0.535
793.500	481.890	80.003	19.994	103.953	20.080	-2.185	0.521
794.000	482.162	80.003	19.994	103.954	20.078	-2.029	0.556
794.500	482.375	80.002	19.994	103.953	20.083	-2.376	0.528
795.000	482.655	80.003	19.993	103.950	20.084	-2.471	0.489
795.500	482.920	80.004	19.994	103.949	20.079	-2.090	0.519
796.000	483.213	80.004	19.993	103.947	20.080	-2.154	0.552
796.500	483.439	80.003	19.993	103.945	20.080	-2.159	0.538
797.000	483.723	80.003	19.994	103.946	20.082	-2.300	0.514
797.500	483.967	80.003	19.994	103.947	20.083	-2.392	0.519
798.000	484.209	80.003	19.993	103.941	20.080	-2.198	0.507
798.500	484.475	80.003	19.993	103.937	20.079	-2.135	0.497
799.000	484.746	80.004	19.992	103.936	20.079	-2.130	0.523
799.500	484.999	80.004	19.993	103.936	20.081	-2.256	0.531
800.000	485.252	80.003	19.994	103.936	20.077	-1.979	0.515
800.500	485.516	80.002	19.993	103.943	20.077	-1.954	0.512
801.000	485.769	80.003	19.993	103.952	20.082	-2.304	0.517
801.500	486.034	80.003	19.994	103.954	20.078	-2.029	0.517
802.000	486.249	80.004	19.993	103.953	20.078	-2.025	0.499
802.500	486.548	80.004	19.994	103.954	20.078	-2.051	0.498
803.000	486.813	80.004	19.994	103.952	20.078	-2.060	0.539
803.500	487.092	80.002	19.993	103.951	20.077	-1.998	0.553
804.000	487.292	80.004	19.993	103.951	20.079	-2.100	0.511
804.500	487.578	80.004	19.994	103.952	20.077	-2.003	0.482
805.000	487.840	80.005	19.994	103.952	20.080	-2.218	0.517
805.500	488.120	80.004	19.994	103.954	20.078	-2.031	0.545
806.000	488.366	80.004	19.994	103.955	20.079	-2.115	0.534
806.500	488.639	80.005	19.993	103.955	20.079	-2.132	0.523
807.000	488.855	80.003	19.993	103.949	20.080	-2.155	0.504
807.500	489.130	80.005	19.994	103.945	20.079	-2.137	0.490
808.000	489.404	80.004	19.994	103.943	20.079	-2.128	0.520
808.500	489.648	80.004	19.994	103.942	20.079	-2.124	0.534
809.000	489.888	80.005	19.993	103.941	20.081	-2.236	0.501
809.500	490.153	80.003	19.994	103.945	20.082	-2.297	0.494
810.000	490.418	80.003	19.994	103.947	20.083	-2.361	0.517
810.500	490.685	80.004	19.993	103.948	20.081	-2.276	0.531
811.000	490.948	80.003	19.994	103.949	20.080	-2.190	0.531
811.500	491.204	80.004	19.993	103.951	20.084	-2.434	0.524
812.000	491.453	80.004	19.993	103.953	20.079	-2.137	0.512
812.500	491.716	80.004	19.993	103.953	20.083	-2.370	0.509
813.001	491.960	80.005	19.993	103.947	20.081	-2.260	0.509
813.500	492.213	80.004	19.992	103.946	20.079	-2.150	0.502
814.000	492.464	80.005	19.993	103.946	20.080	-2.203	0.500
814.500	492.709	80.004	19.994	103.946	20.082	-2.328	0.500
815.000	493.009	80.004	19.993	103.948	20.085	-2.498	0.521
815.500	493.224	80.004	19.993	103.950	20.080	-2.192	0.530
816.000	493.488	80.003	19.994	103.948	20.083	-2.401	0.497
816.500	493.738	80.005	19.993	103.947	20.079	-2.131	0.497
817.000	494.006	80.004	19.994	103.945	20.081	-2.234	0.516
817.500	494.255	80.003	19.994	103.941	20.082	-2.333	0.517
818.000	494.521	80.003	19.994	103.944	20.082	-2.295	0.516
818.500	494.783	80.003	19.993	103.946	20.083	-2.357	0.521
819.000	495.050	80.005	19.993	103.947	20.082	-2.341	0.528
819.500	495.287	80.003	19.993	103.946	20.081	-2.280	0.516
820.000	495.581	80.003	19.992	103.945	20.085	-2.495	0.517
820.500	495.833	80.004	19.995	103.942	20.083	-2.370	0.538
821.000	496.063	80.004	19.994	103.942	20.082	-2.311	0.514
821.500	496.329	80.004	19.996	103.939	20.082	-2.348	0.489
822.000	496.576	80.004	19.994	103.940	20.085	-2.533	0.505
822.500	496.818	80.004	19.995	103.944	20.084	-2.451	0.501
823.000	497.051	80.003	19.994	103.944	20.083	-2.401	0.481
823.500	497.344	80.003	19.994	103.944	20.085	-2.507	0.500
824.000	497.567	80.003	19.995	103.944	20.083	-2.412	0.521
824.500	497.813	80.004	19.994	103.942	20.083	-2.381	0.493
825.000	498.098	80.001	19.993	103.939	20.082	-2.313	0.500
825.500	498.388	80.003	19.994	103.942	20.081	-2.286	0.553
826.000	498.562	80.003	19.994	103.941	20.084	-2.445	0.520
826.500	498.868	80.003	19.995	103.940	20.084	-2.482	0.472
827.000	499.103	80.003	19.995	103.939	20.083	-2.410	0.510
827.500	499.350	80.004	19.994	103.938	20.085	-2.521	0.511
828.000	499.618	80.004	19.995	103.936	20.084	-2.453	0.498
828.500	499.875	80.003	19.995	103.935	20.083	-2.390	0.520
829.000	500.106	80.004	19.996	103.935	20.084	-2.451	0.507
829.500	500.346	80.003	19.994	103.932	20.086	-2.568	0.480
830.000	500.611	80.004	19.995	103.935	20.084	-2.487	0.488
830.500	500.891	80.003	19.995	103.936	20.085	-2.540	0.525
831.000	501.111	80.005	19.994	103.939	20.083	-2.403	0.522
831.500	501.370	80.004	19.995	103.943	20.083	-2.372	0.490
832.000	501.616	80.005	19.994	103.947	20.084	-2.469	0.492
832.500	501.854	80.003	19.995	103.945	20.086	-2.603	0.494
833.000	502.130	80.006	19.994	103.944	20.086	-2.582	0.499
833.500	502.379	80.005	19.995	103.943	20.084	-2.441	0.520
834.000	502.607	80.005	19.994	103.939	20.084	-2.451	0.501
834.500	502.862	80.006	19.994	103.934	20.086	-2.583	0.480
835.000	503.105	80.003	19.994	103.933	20.084	-2.436	0.490
835.500	503.372	80.004	19.994	103.934	20.082	-2.313	0.504
836.000	503.628	80.005	19.995	103.933	20.083	-2.375	0.516
836.500	503.870	80.006	19.994	103.937	20.082	-2.331	0.510
837.000	504.155	80.005	19.994	103.942	20.082	-2.353	0.513
837.500	504.371	80.005	19.994	103.947	20.085	-2.511	0.514
838.000	504.660	80.005	19.995	103.947	20.083	-2.410	0.503
838.500	504.842	80.005	19.994	103.948	20.085	-2.544	0.488
839.000	505.150	80.005	19.995	103.948	20.083	-2.388	0.481
839.500	505.390	80.005	19.994	103.944	20.084	-2.484	0.519
840.000	505.643	80.006	19.994	103.940	20.082	-2.346	0.520
840.500	505.899	80.006	19.994	103.940	20.085	-2.509	0.501
841.000	506.144	80.006	19.993	103.940	20.081	-2.232	0.506
841.500	506.397	80.005	19.993	103.934	20.082	-2.298	0.500
842.000	506.625	80.005	19.994	103.932	20.081	-2.256	0.489
842.500	506.872	80.005	19.995	103.935	20.081	-2.280	0.478
843.000	507.111	80.005	19.993	103.931	20.083	-2.388	0.481
843.500	507.370	80.006	19.993	103.926	20.081	-2.223	0.492
844.000	507.641	80.005	19.994	103.929	20.082	-2.333	0.514
844.500	507.864	80.006	19.994	103.931	20.084	-2.473	0.512
845.000	508.116	80.004	19.994	103.932	20.081	-2.240	0.485
845.500	508.374	80.005	19.994	103.931	20.084	-2.441	0.492
846.000	508.648	80.004	19.993	103.931	20.084	-2.443	0.521
846.500	508.894	80.006	19.994	103.927	20.086	-2.561	0.526
847.000	509.149	80.006	19.993	103.929	20.085	-2.491	0.511
847.500	509.371	80.004	19.993	103.929	20.084	-2.472	0.489
848.000	509.654	80.004	19.995	103.933	20.085	-2.546	0.491
848.500	509.882	80.005	19.994	103.938	20.086	-2.597	0.508
849.000	510.120	80.004	19.994	103.941	20.083	-2.403	0.488
849.500	510.383	80.004	19.994	103.942	20.085	-2.502	0.484
850.000	510.627	80.004	19.994	103.938	20.084	-2.469	0.504
850.500	510.882	80.002	19.995	103.933	20.085	-2.500	0.503
851.000	511.113	80.005	19.994	103.927	20.082	-2.329	0.492
851.500	511.377	80.004	19.994	103.922	20.082	-2.353	0.490
852.001	511.629	80.004	19.994	103.919	20.083	-2.362	0.506
852.500	511.887	80.003	19.994	103.917	20.082	-2.350	0.513
853.000	512.112	80.003	19.994	103.919	20.084	-2.425	0.496
853.500	512.345	80.004	19.994	103.923	20.083	-2.410	0.470
854.000	512.630	80.003	19.995	103.930	20.080	-2.194	0.488
854.500	512.842	80.004	19.994	103.935	20.084	-2.482	0.508
855.000	513.102	80.005	19.993	103.937	20.087	-2.645	0.484
855.500	513.369	80.003	19.995	103.943	20.085	-2.522	0.500
856.000	513.637	80.004	19.994	103.940	20.080	-2.199	0.532
856.500	513.832	80.004	19.994	103.933	20.083	-2.357	0.499
857.000	514.129	80.004	19.994	103.928	20.082	-2.298	0.477
857.500	514.367	80.004	19.994	103.931	20.084	-2.473	0.514
858.000	514.672	80.004	19.994	103.931	20.083	-2.366	0.539
858.500	514.885	80.004	19.995	103.929	20.081	-2.232	0.531
859.000	515.139	80.004	19.995	103.929	20.082	-2.332	0.493
859.500	515.414	80.004	19.995	103.932	20.083	-2.377	0.498
860.000	515.682	80.005	19.995	103.932	20.083	-2.399	0.535
860.500	515.911	80.005	19.994	103.930	20.082	-2.291	0.520
861.001	516.172	80.003	19.994	103.932	20.082	-2.342	0.494
861.500	516.435	80.006	19.995	103.932	20.082	-2.342	0.507
862.000	516.669	80.003	19.994	103.931	20.085	-2.504	0.511
862.500	516.918	80.005	19.994	103.930	20.082	-2.322	0.490
863.000	517.159	80.003	19.994	103.928	20.086	-2.579	0.486
863.500	517.435	80.005	19.994	103.931	20.083	-2.394	0.503
864.000	517.691	80.005	19.994	103.934	20.083	-2.408	0.525
864.500	517.943	80.005	19.994	103.939	20.082	-2.300	0.520
865.000	518.188	80.005	19.993	103.942	20.082	-2.331	0.502
865.500	518.415	80.004	19.993	103.944	20.082	-2.326	0.485
866.000	518.681	80.005	19.993	103.943	20.084	-2.476	0.483
866.500	518.941	80.006	19.994	103.939	20.085	-2.517	0.510
867.000	519.175	80.006	19.993	103.933	20.086	-2.572	0.510
867.500	519.433	80.006	19.994	103.931	20.084	-2.456	0.492
868.000	519.686	80.006	19.994	103.933	20.082	-2.315	0.501
868.500	519.944	80.005	19.993	103.933	20.087	-2.639	0.511
869.000	520.189	80.007	19.994	103.937	20.086	-2.577	0.507
869.500	520.436	80.006	19.994	103.941	20.085	-2.522	0.498
870.000	520.719	80.007	19.994	103.942	20.086	-2.595	0.511
870.500	520.957	80.006	19.993	103.940	20.084	-2.454	0.525
871.001	521.204	80.005	19.994	103.940	20.086	-2.610	0.503
871.500	521.491	80.004	19.993	103.937	20.085	-2.496	0.509
872.000	521.718	80.005	19.993	103.938	20.087	-2.651	0.524
872.500	521.992	80.004	19.993	103.937	20.089	-2.788	0.508
873.001	522.244	80.004	19.993	103.934	20.088	-2.693	0.514
873.500	522.473	80.004	19.994	103.932	20.088	-2.706	0.503
874.000	522.740	80.005	19.994	103.932	20.086	-2.568	0.488
874.500	522.990	80.004	19.994	103.927	20.087	-2.652	0.506
875.000	523.263	80.003	19.994	103.923	20.088	-2.715	0.520
875.500	523.548	80.004	19.993	103.924	20.086	-2.601	0.541
876.000	523.791	80.004	19.994	103.927	20.087	-2.685	0.543
876.500	524.061	80.002	19.993	103.931	20.089	-2.762	0.521
877.000	524.281	80.004	19.993	103.933	20.086	-2.588	0.501
877.500	524.532	80.002	19.994	103.936	20.087	-2.636	0.480
878.000	524.792	80.004	19.994	103.936	20.086	-2.590	0.491
878.500	525.053	80.003	19.994	103.934	20.085	-2.497	0.516
879.000	525.281	80.003	19.993	103.927	20.082	-2.326	0.505
879.500	525.530	80.004	19.993	103.924	20.084	-2.445	0.483
880.000	525.830	80.002	19.992	103.920	20.082	-2.331	0.513
880.500	526.078	80.004	19.995	103.918	20.082	-2.344	0.549
881.000	526.315	80.004	19.995	103.921	20.086	-2.572	0.517
881.500	526.576	80.004	19.995	103.926	20.085	-2.537	0.492
882.000	526.838	80.004	19.994	103.933	20.082	-2.346	0.511
882.500	527.100	80.004	19.993	103.937	20.089	-2.821	0.523
883.000	527.370	80.004	19.994	103.939	20.085	-2.519	0.528
883.500	527.612	80.004	19.994	103.939	20.085	-2.498	0.522
884.001	527.876	80.003	19.995	103.939	20.086	-2.584	0.509
884.500	528.141	80.004	19.994	103.940	20.085	-2.535	0.517
885.000	528.420	80.003	19.994	103.936	20.085	-2.551	0.537
885.500	528.692	80.004	19.994	103.938	20.086	-2.619	0.548
886.000	528.935	80.005	19.994	103.936	20.087	-2.632	0.533
886.500	529.187	80.004	19.993	103.935	20.087	-2.683	0.505
887.000	529.464	80.005	19.994	103.930	20.086	-2.610	0.512
887.500	529.670	80.003	19.993	103.931	20.089	-2.791	0.506
888.000	529.966	80.004	19.994	103.934	20.091	-2.898	0.493
888.500	530.202	80.005	19.994	103.940	20.090	-2.836	0.517
889.000	530.480	80.004	19.994	103.941	20.088	-2.711	0.523
889.500	530.742	80.003	19.994	103.941	20.090	-2.851	0.527
890.000	530.967	80.002	19.994	103.945	20.086	-2.564	0.514
890.500	531.250	80.003	19.994	103.938	20.087	-2.629	0.497
891.000	531.493	80.004	19.994	103.934	20.088	-2.739	0.517
891.500	531.811	80.002	19.995	103.931	20.087	-2.676	0.543
892.000	532.027	80.003	19.994	103.931	20.088	-2.707	0.548
892.500	532.294	80.003	19.995	103.932	20.088	-2.742	0.508
893.000	532.527	80.003	19.995	103.935	20.084	-2.441	0.491
893.500	532.820	80.004	19.993	103.938	20.087	-2.658	0.513
894.000	533.127	80.004	19.994	103.937	20.085	-2.529	0.563
894.500	533.324	80.005	19.993	103.936	20.085	-2.518	0.553
895.000	533.585	80.004	19.994	103.931	20.086	-2.570	0.481
895.500	533.870	80.004	19.994	103.927	20.084	-2.461	0.502
896.000	534.141	80.005	19.994	103.927	20.086	-2.610	0.551
896.500	534.408	80.004	19.995	103.925	20.084	-2.452	0.547
897.000	534.658	80.004	19.995	103.930	20.085	-2.540	0.528
897.500	534.953	80.003	19.993	103.929	20.087	-2.684	0.531
898.000	535.220	80.003	19.994	103.929	20.086	-2.617	0.553
898.500	535.458	80.004	19.994	103.925	20.086	-2.559	0.533
899.000	535.744	80.004	19.995	103.926	20.087	-2.630	0.515
899.500	535.981	80.005	19.994	103.927	20.084	-2.487	0.523
900.000	536.272	80.005	19.994	103.931	20.084	-2.451	0.525
900.500	536.531	80.005	19.994	103.937	20.087	-2.673	0.539
901.000	536.797	80.004	19.994	103.941	20.087	-2.632	0.538
901.500	537.062	80.005	19.994	103.940	20.086	-2.620	0.528
902.000	537.337	80.002	19.994	103.934	20.084	-2.431	0.535
902.500	537.601	80.004	19.993	103.935	20.084	-2.454	0.539
903.000	537.873	80.004	19.994	103.934	20.085	-2.508	0.537
903.500	538.109	80.004	19.995	103.930	20.085	-2.517	0.522
904.000	538.380	80.003	19.994	103.934	20.085	-2.522	0.507
904.500	538.609	80.004	19.994	103.934	20.086	-2.575	0.503
905.000	538.923	80.003	19.993	103.929	20.084	-2.436	0.522
905.500	539.189	80.003	19.994	103.924	20.088	-2.698	0.562
906.000	539.453	80.004	19.994	103.923	20.084	-2.476	0.555
906.500	539.672	80.003	19.993	103.924	20.084	-2.456	0.506
907.000	539.989	80.004	19.993	103.932	20.086	-2.594	0.509
907.500	540.235	80.003	19.993	103.934	20.087	-2.660	0.549
908.000	540.505	80.003	19.993	103.936	20.085	-2.495	0.540
908.500	540.750	80.003	19.994	103.935	20.086	-2.588	0.516
909.000	541.031	80.003	19.994	103.929	20.086	-2.581	0.520
909.500	541.278	80.002	19.994	103.923	20.085	-2.504	0.527
910.000	541.547	80.003	19.994	103.926	20.086	-2.612	0.522
910.500	541.817	80.002	19.994	103.933	20.086	-2.557	0.528
911.000	542.033	80.003	19.993	103.936	20.086	-2.568	0.513
911.500	542.321	80.004	19.994	103.940	20.086	-2.575	0.495
912.000	542.588	80.003	19.994	103.945	20.087	-2.639	0.529
912.500	542.879	80.003	19.994	103.943	20.085	-2.491	0.556
913.000	543.121	80.004	19.993	103.942	20.084	-2.461	0.546
913.500	543.382	80.003	19.994	103.942	20.087	-2.647	0.519
914.000	543.688	80.003	19.995	103.940	20.085	-2.494	0.535
914.501	543.913	80.004	19.994	103.933	20.086	-2.560	0.548
915.000	544.181	80.004	19.994	103.931	20.086	-2.588	0.512
915.500	544.426	80.004	19.994	103.924	20.088	-2.698	0.503
916.000	544.687	80.004	19.993	103.920	20.085	-2.524	0.510
916.500	544.981	80.005	19.993	103.921	20.088	-2.735	0.531
917.000	545.228	80.004	19.993	103.925	20.088	-2.712	0.548
917.500	545.467	80.004	19.994	103.928	20.088	-2.744	0.513
918.000	545.765	80.005	19.994	103.930	20.090	-2.833	0.511
918.500	546.039	80.006	19.994	103.933	20.086	-2.608	0.555
919.000	546.327	80.006	19.994	103.934	20.089	-2.773	0.567
919.500	546.557	80.004	19.993	103.931	20.086	-2.557	0.540
920.000	546.811	80.004	19.993	103.929	20.085	-2.505	0.501
920.500	547.072	80.004	19.994	103.927	20.088	-2.736	0.500
921.000	547.339	80.004	19.994	103.928	20.088	-2.753	0.522
921.500	547.623	80.004	19.994	103.926	20.086	-2.584	0.540
922.000	547.858	80.005	19.994	103.924	20.089	-2.773	0.535
922.500	548.136	80.005	19.994	103.924	20.086	-2.610	0.516
923.000	548.411	80.008	19.995	103.923	20.090	-2.891	0.533
923.500	548.677	80.005	19.994	103.919	20.088	-2.709	0.547
924.000	548.957	80.004	19.994	103.919	20.089	-2.777	0.543
924.500	549.208	80.004	19.994	103.922	20.091	-2.957	0.539
925.000	549.476	80.004	19.994	103.924	20.088	-2.703	0.525
925.500	549.722	80.004	19.995	103.929	20.089	-2.760	0.516
926.000	550.033	80.004	19.994	103.929	20.090	-2.888	0.535
926.500	550.260	80.004	19.994	103.928	20.088	-2.702	0.547
927.000	550.561	80.004	19.995	103.925	20.089	-2.760	0.533
927.500	550.811	80.004	19.994	103.923	20.089	-2.777	0.539
928.000	551.064	80.004	19.994	103.919	20.086	-2.592	0.527
928.500	551.334	80.005	19.993	103.918	20.088	-2.729	0.513
929.000	551.558	80.004	19.994	103.918	20.087	-2.685	0.509
929.500	551.856	80.004	19.994	103.918	20.087	-2.648	0.508
930.000	552.114	80.003	19.994	103.918	20.086	-2.617	0.539
930.500	552.363	80.005	19.993	103.918	20.087	-2.634	0.531
931.000	552.656	80.004	19.994	103.919	20.086	-2.610	0.525
931.500	552.891	80.003	19.995	103.920	20.087	-2.641	0.535
932.000	553.171	80.004	19.993	103.920	20.087	-2.636	0.522
932.500	553.418	80.004	19.993	103.921	20.088	-2.701	0.521
933.000	553.662	80.004	19.994	103.924	20.086	-2.578	0.509
933.500	553.953	80.005	19.993	103.931	20.089	-2.811	0.512
934.000	554.218	80.005	19.995	103.933	20.087	-2.652	0.545
934.500	554.469	80.005	19.994	103.933	20.090	-2.866	0.537
935.000	554.737	80.004	19.995	103.932	20.088	-2.694	0.517
935.500	555.041	80.005	19.994	103.927	20.089	-2.764	0.545
936.000	555.283	80.004	19.994	103.921	20.085	-2.505	0.559
936.500	555.548	80.004	19.994	103.918	20.088	-2.720	0.527
937.000	555.818	80.005	19.994	103.918	20.087	-2.670	0.521
937.500	556.086	80.005	19.994	103.923	20.088	-2.698	0.537
938.000	556.315	80.005	19.995	103.927	20.085	-2.507	0.518
938.500	556.591	80.005	19.994	103.926	20.089	-2.777	0.501
939.000	556.856	80.004	19.994	103.925	20.084	-2.459	0.523
939.500	557.142	80.005	19.993	103.924	20.086	-2.582	0.546
940.000	557.364	80.003	19.993	103.922	20.088	-2.705	0.529
940.500	557.616	80.004	19.994	103.923	20.086	-2.573	0.491
941.000	557.883	80.005	19.994	103.928	20.088	-2.740	0.497
941.500	558.165	80.005	19.995	103.931	20.088	-2.714	0.534
942.000	558.458	80.006	19.994	103.931	20.090	-2.850	0.562
942.500	558.664	80.006	19.993	103.928	20.087	-2.648	0.537
943.000	558.920	80.006	19.994	103.923	20.090	-2.826	0.480
943.500	559.200	80.006	19.994	103.917	20.087	-2.659	0.499
944.000	559.467	80.005	19.994	103.914	20.087	-2.661	0.542
944.500	559.725	80.006	19.994	103.915	20.088	-2.716	0.535
945.000	559.999	80.005	19.994	103.915	20.087	-2.635	0.528
945.500	560.249	80.005	19.994	103.916	20.087	-2.637	0.529
946.000	560.485	80.007	19.994	103.918	20.086	-2.621	0.505
946.500	560.742	80.005	19.993	103.919	20.086	-2.568	0.489
947.000	560.998	80.005	19.994	103.920	20.088	-2.757	0.503
947.500	561.280	80.007	19.994	103.921	20.088	-2.729	0.526
948.000	561.583	80.006	19.994	103.920	20.086	-2.588	0.562
948.500	561.807	80.007	19.994	103.919	20.088	-2.731	0.556
949.000	562.056	80.005	19.994	103.918	20.088	-2.729	0.500
949.500	562.350	80.006	19.994	103.917	20.090	-2.826	0.508
950.000	562.558	80.007	19.996	103.918	20.088	-2.734	0.522
950.500	562.850	80.005	19.995	103.919	20.089	-2.760	0.501
951.000	563.110	80.006	19.994	103.919	20.088	-2.716	0.526
951.500	563.357	80.005	19.994	103.921	20.086	-2.582	0.530
952.000	563.642	80.004	19.994	103.921	20.090	-2.854	0.519
952.500	563.883	80.005	19.995	103.920	20.089	-2.788	0.529
953.000	564.130	80.004	19.995	103.919	20.087	-2.678	0.507
953.500	564.393	80.003	19.995	103.919	20.087	-2.652	0.499
954.000	564.678	80.003	19.995	103.915	20.088	-2.705	0.529
954.500	564.933	80.003	19.995	103.917	20.088	-2.720	0.544
955.000	565.197	80.004	19.995	103.918	20.086	-2.569	0.530
955.500	565.483	80.002	19.994	103.919	20.085	-2.511	0.534
956.000	565.709	80.004	19.994	103.919	20.087	-2.667	0.531
956.500	565.994	80.004	19.995	103.920	20.091	-2.896	0.512
957.000	566.296	80.004	19.996	103.919	20.087	-2.689	0.549
957.500	566.514	80.004	19.994	103.919	20.091	-2.910	0.553
958.001	566.793	80.004	19.994	103.921	20.090	-2.877	0.509
958.500	567.031	80.004	19.993	103.920	20.090	-2.876	0.507
959.000	567.269	80.004	19.994	103.919	20.088	-2.718	0.497
959.500	567.531	80.003	19.994	103.920	20.088	-2.738	0.488
960.000	567.791	80.003	19.994	103.918	20.087	-2.687	0.511
960.500	568.067	80.004	19.993	103.916	20.091	-2.922	0.529
961.000	568.356	80.003	19.994	103.916	20.090	-2.857	0.551
961.500	568.564	80.003	19.994	103.916	20.087	-2.626	0.531
962.000	568.852	80.003	19.994	103.914	20.089	-2.788	0.496
962.500	569.061	80.003	19.994	103.915	20.085	-2.524	0.497
963.000	569.362	80.002	19.994	103.915	20.088	-2.753	0.504
963.500	569.622	80.002	19.993	103.915	20.088	-2.727	0.536
964.000	569.894	80.003	19.993	103.916	20.087	-2.672	0.546
964.500	570.134	80.003	19.994	103.918	20.085	-2.513	0.522
965.000	570.367	80.003	19.993	103.920	20.089	-2.817	0.493
965.500	570.639	80.005	19.994	103.920	20.089	-2.766	0.489
966.000	570.923	80.002	19.993	103.921	20.090	-2.870	0.530
966.500	571.185	80.004	19.993	103.921	20.089	-2.812	0.551
967.000	571.450	80.003	19.994	103.918	20.088	-2.746	0.537
967.500	571.673	80.003	19.994	103.918	20.090	-2.834	0.507
968.000	571.930	80.003	19.993	103.918	20.091	-2.944	0.484
968.500	572.208	80.002	19.993	103.917	20.089	-2.773	0.508
969.000	572.462	80.003	19.992	103.918	20.089	-2.815	0.534
969.500	572.729	80.002	19.993	103.920	20.088	-2.733	0.526
970.000	573.015	80.003	19.993	103.919	20.091	-2.900	0.537
970.500	573.283	80.003	19.993	103.921	20.089	-2.760	0.553
971.000	573.543	80.005	19.994	103.921	20.092	-2.993	0.541
971.500	573.801	80.003	19.993	103.921	20.089	-2.777	0.523
972.000	574.073	80.004	19.995	103.923	20.089	-2.806	0.524
972.500	574.331	80.003	19.993	103.927	20.089	-2.791	0.530
973.000	574.586	80.003	19.994	103.930	20.088	-2.753	0.522
973.500	574.872	80.004	19.993	103.931	20.091	-2.913	0.527
974.000	575.159	80.003	19.993	103.931	20.090	-2.828	0.557
974.501	575.382	80.002	19.994	103.928	20.090	-2.825	0.541
975.001	575.653	80.003	19.994	103.923	20.091	-2.914	0.502
975.501	575.882	80.002	19.993	103.919	20.089	-2.786	0.497
976.000	576.148	80.004	19.993	103.921	20.092	-2.958	0.498
976.500	576.398	80.003	19.993	103.927	20.090	-2.872	0.505
977.000	576.652	80.004	19.994	103.929	20.089	-2.819	0.510
977.500	576.900	80.003	19.992	103.930	20.090	-2.883	0.503
978.000	577.173	80.003	19.995	103.929	20.086	-2.612	0.512
978.500	577.435	80.004	19.993	103.926	20.090	-2.854	0.528
979.000	577.674	80.004	19.993	103.921	20.092	-2.964	0.518
979.500	577.937	80.003	19.993	103.923	20.090	-2.856	0.502
980.000	578.228	80.003	19.993	103.923	20.090	-2.843	0.528
980.500	578.478	80.004	19.994	103.923	20.094	-3.131	0.548
981.000	578.747	80.004	19.994	103.923	20.088	-2.753	0.530
981.500	578.989	80.004	19.994	103.923	20.092	-2.984	0.515
982.000	579.218	80.004	19.993	103.918	20.089	-2.777	0.491
982.500	579.485	80.004	19.993	103.918	20.090	-2.870	0.484
983.000	579.768	80.003	19.994	103.918	20.092	-3.002	0.523
983.500	580.035	80.002	19.993	103.918	20.090	-2.870	0.550
984.000	580.229	80.003	19.994	103.921	20.091	-2.920	0.506
984.500	580.504	80.003	19.994	103.926	20.088	-2.725	0.465
985.000	580.796	80.003	19.994	103.927	20.089	-2.811	0.518
985.500	581.032	80.003	19.994	103.927	20.090	-2.865	0.548
986.000	581.283	80.002	19.993	103.927	20.090	-2.841	0.508
986.500	581.529	80.003	19.993	103.927	20.093	-3.044	0.492
987.000	581.771	80.003	19.993	103.923	20.090	-2.861	0.493
987.500	582.063	80.002	19.993	103.921	20.092	-2.984	0.511
988.000	582.280	80.004	19.993	103.921	20.090	-2.877	0.521
988.500	582.523	80.003	19.994	103.921	20.088	-2.698	0.484
989.000	582.838	80.004	19.995	103.918	20.092	-2.973	0.509
989.500	583.064	80.004	19.993	103.918	20.092	-2.964	0.549
990.001	583.293	80.002	19.993	103.918	20.091	-2.922	0.497
990.500	583.555	80.002	19.993	103.919	20.094	-3.107	0.473
991.000	583.815	80.003	19.994	103.919	20.092	-2.960	0.507
991.500	584.102	80.003	19.993	103.918	20.092	-3.019	0.535
992.000	584.330	80.002	19.993	103.919	20.091	-2.925	0.531
992.500	584.594	80.003	19.993	103.919	20.089	-2.773	0.503
993.000	584.794	80.003	19.994	103.918	20.089	-2.800	0.478
993.500	585.063	80.003	19.993	103.918	20.090	-2.872	0.467
994.000	585.329	80.004	19.994	103.920	20.089	-2.797	0.503
994.500	585.600	80.004	19.994	103.919	20.092	-2.988	0.536
995.000	585.829	80.003	19.993	103.919	20.092	-2.969	0.519
995.500	586.120	80.004	19.994	103.919	20.094	-3.156	0.510
996.000	586.341	80.003	19.993	103.919	20.092	-3.022	0.516
996.500	586.590	80.005	19.994	103.918	20.093	-3.092	0.491
997.000	586.853	80.006	19.992	103.919	20.093	-3.087	0.491
997.500	587.107	80.005	19.993	103.919	20.094	-3.107	0.515
998.000	587.338	80.005	19.993	103.918	20.091	-2.916	0.501
998.500	587.597	80.005	19.993	103.918	20.091	-2.910	0.487
999.000	587.881	80.006	19.994	103.917	20.089	-2.797	0.516
999.500	588.092	80.007	19.994	103.916	20.089	-2.819	0.519
1000.000	588.344	80.004	19.992	103.916	20.096	-3.277	0.479
1000.500	588.602	80.006	19.996	103.917	20.094	-3.101	0.487
1001.000	588.848	80.006	19.996	103.921	20.092	-2.981	0.508
1001.500	589.137	80.006	19.995	103.926	20.093	-3.078	0.520
1002.000	589.331	80.007	19.995	103.928	20.095	-3.195	0.509
1002.500	589.638	80.006	19.994	103.927	20.093	-3.067	0.492
1003.001	589.881	80.004	19.995	103.927	20.095	-3.199	0.525
1003.500	590.122	80.006	19.994	103.924	20.094	-3.096	0.517
1004.000	590.332	80.005	19.995	103.919	20.094	-3.114	0.468
1004.500	590.641	80.004	19.994	103.917	20.092	-3.004	0.485
1005.000	590.877	80.006	19.993	103.918	20.091	-2.899	0.532
1005.500	591.093	80.006	19.993	103.918	20.093	-3.066	0.499
1006.000	591.360	80.005	19.993	103.917	20.090	-2.888	0.468
1006.500	591.578	80.004	19.993	103.921	20.091	-2.947	0.484
1007.000	591.850	80.005	19.993	103.922	20.093	-3.042	0.488
1007.500	592.084	80.005	19.994	103.922	20.092	-3.000	0.498
1008.000	592.346	80.004	19.993	103.920	20.089	-2.780	0.501
1008.500	592.582	80.005	19.993	103.919	20.090	-2.843	0.497
1009.000	592.845	80.005	19.994	103.916	20.091	-2.932	0.499
1009.500	593.103	80.004	19.995	103.915	20.093	-3.026	0.509
1010.000	593.349	80.005	19.994	103.917	20.094	-3.138	0.512
1010.500	593.611	80.006	19.994	103.919	20.093	-3.059	0.506
1011.000	593.830	80.006	19.994	103.924	20.090	-2.885	0.495
1011.500	594.116	80.003	19.993	103.927	20.095	-3.226	0.493
1012.000	594.340	80.004	19.994	103.930	20.090	-2.832	0.507
1012.500	594.592	80.005	19.994	103.930	20.094	-3.123	0.493
1013.000	594.835	80.004	19.993	103.930	20.093	-3.081	0.486
1013.500	595.089	80.005	19.994	103.925	20.092	-2.971	0.496
1014.000	595.377	80.005	19.994	103.922	20.092	-3.009	0.520
1014.500	595.561	80.004	19.995	103.920	20.091	-2.912	0.507
1015.000	595.861	80.005	19.994	103.917	20.090	-2.876	0.478
1015.500	596.113	80.005	19.994	103.916	20.089	-2.766	0.518
1016.000	596.371	80.004	19.994	103.917	20.091	-2.942	0.531
1016.500	596.614	80.006	19.995	103.917	20.094	-3.101	0.505
1017.000	596.877	80.005	19.994	103.916	20.091	-2.942	0.503
1017.500	597.149	80.004	19.995	103.916	20.094	-3.111	0.521
1018.000	597.381	80.005	19.994	103.916	20.094	-3.100	0.520
1018.500	597.611	80.005	19.995	103.916	20.095	-3.186	0.483
1019.000	597.847	80.005	19.995	103.916	20.095	-3.206	0.464
1019.500	598.136	80.005	19.993	103.916	20.096	-3.230	0.496
1020.000	598.369	80.004	19.994	103.916	20.094	-3.109	0.524
1020.500	598.590	80.006	19.994	103.919	20.094	-3.094	0.488
1021.000	598.838	80.005	19.994	103.921	20.093	-3.074	0.461
1021.500	599.126	80.006	19.993	103.920	20.096	-3.276	0.503
1022.000	599.354	80.005	19.993	103.920	20.098	-3.369	0.526
1022.500	599.594	80.005	19.994	103.920	20.092	-3.000	0.492
1023.000	599.852	80.006	19.995	103.916	20.092	-2.999	0.483
1023.500	600.101	80.005	19.993	103.915	20.096	-3.292	0.503
1024.000	600.370	80.006	19.994	103.915	20.094	-3.103	0.512
1024.500	600.635	80.005	19.993	103.916	20.093	-3.077	0.526
1025.000	600.847	80.006	19.993	103.916	20.090	-2.879	0.506
1025.501	601.108	80.007	19.993	103.915	20.088	-2.755	0.475
1026.001	601.368	80.006	19.993	103.915	20.092	-2.987	0.497
1026.501	601.628	80.006	19.993	103.915	20.094	-3.131	0.521
1027.000	601.862	80.007	19.994	103.914	20.093	-3.074	0.507
1027.500	602.114	80.005	19.992	103.918	20.091	-2.938	0.490
1028.000	602.332	80.007	19.994	103.923	20.092	-3.010	0.478
1028.500	602.617	80.005	19.994	103.926	20.094	-3.147	0.486
1029.000	602.855	80.006	19.993	103.930	20.094	-3.107	0.513
1029.500	603.091	80.006	19.993	103.932	20.092	-2.969	0.498
1030.000	603.347	80.006	19.993	103.930	20.090	-2.865	0.483
1030.500	603.632	80.007	19.994	103.932	20.094	-3.105	0.517
1031.001	603.895	80.008	19.992	103.930	20.092	-2.971	0.544
1031.501	604.105	80.007	19.994	103.928	20.092	-2.968	0.510
1032.001	604.353	80.006	19.993	103.928	20.091	-2.911	0.466
1032.500	604.630	80.005	19.993	103.926	20.091	-2.918	0.491
1033.000	604.886	80.004	19.994	103.923	20.090	-2.874	0.529
1033.500	605.167	80.004	19.993	103.921	20.089	-2.799	0.535
1034.000	605.389	80.004	19.994	103.921	20.091	-2.905	0.520
1034.500	605.642	80.005	19.993	103.919	20.089	-2.788	0.489
1035.000	605.933	80.004	19.994	103.920	20.089	-2.800	0.509
1035.500	606.168	80.004	19.993	103.916	20.091	-2.905	0.535
1036.000	606.398	80.004	19.994	103.916	20.091	-2.918	0.495
1036.500	606.619	80.004	19.994	103.916	20.092	-3.019	0.458
1037.000	606.894	80.005	19.994	103.917	20.094	-3.103	0.474
1037.500	607.130	80.004	19.995	103.918	20.091	-2.914	0.503
1038.000	607.421	80.005	19.995	103.921	20.090	-2.888	0.519
1038.500	607.606	80.005	19.995	103.922	20.094	-3.103	0.502
1039.000	607.856	80.003	19.995	103.921	20.092	-3.015	0.456
1039.500	608.122	80.004	19.994	103.921	20.093	-3.057	0.475
1040.000	608.396	80.003	19.995	103.921	20.091	-2.901	0.528
1040.500	608.615	80.004	19.995	103.920	20.092	-2.984	0.516
1041.000	608.893	80.003	19.995	103.926	20.091	-2.947	0.495
1041.500	609.111	80.004	19.994	103.927	20.093	-3.041	0.497
1042.000	609.402	80.003	19.994	103.929	20.090	-2.839	0.503
1042.500	609.650	80.002	19.995	103.929	20.090	-2.846	0.524
1043.000	609.856	80.002	19.995	103.926	20.092	-2.991	0.496
1043.500	610.136	80.003	19.994	103.920	20.091	-2.920	0.470
1044.000	610.385	80.002	19.994	103.920	20.093	-3.059	0.508
1044.500	610.645	80.002	19.994	103.920	20.093	-3.077	0.520
1045.000	610.900	80.003	19.994	103.919	20.091	-2.956	0.512
1045.500	611.141	80.003	19.995	103.919	20.091	-2.925	0.505
1046.000	611.356	80.003	19.994	103.919	20.090	-2.866	0.475
1046.500	611.654	80.003	19.995	103.918	20.092	-3.024	0.484
1047.000	611.871	80.003	19.994	103.916	20.089	-2.810	0.515
1047.501	612.112	80.003	19.994	103.917	20.092	-3.002	0.487
1048.001	612.387	80.003	19.994	103.918	20.090	-2.879	0.487
1048.500	612.665	80.004	19.995	103.917	20.090	-2.881	0.534
1049.000	612.928	80.003	19.994	103.918	20.093	-3.085	0.547
1049.500	613.151	80.003	19.994	103.919	20.091	-2.933	0.513
1050.000	613.428	80.004	19.994	103.920	20.093	-3.059	0.493
1050.500	613.690	80.003	19.995	103.919	20.092	-3.015	0.520
1051.000	613.915	80.003	19.994	103.922	20.092	-2.964	0.513
1051.500	614.180	80.004	19.993	103.921	20.092	-2.973	0.489
1052.000	614.481	80.003	19.994	103.921	20.091	-2.931	0.528
1052.501	614.719	80.004	19.993	103.919	20.092	-2.984	0.552
1053.001	614.929	80.004	19.994	103.920	20.091	-2.911	0.493
1053.501	615.247	80.002	19.994	103.918	20.092	-2.979	0.488
1054.000	615.471	80.003	19.994	103.919	20.091	-2.942	0.535
1054.500	615.744	80.003	19.993	103.918	20.093	-3.041	0.520
1055.001	615.978	80.003	19.993	103.919	20.089	-2.808	0.502
1055.501	616.285	80.004	19.994	103.919	20.091	-2.949	0.524
1056.000	616.481	80.004	19.993	103.919	20.093	-3.070	0.522
1056.500	616.780	80.003	19.993	103.918	20.095	-3.213	0.499
1057.000	617.046	80.004	19.993	103.918	20.095	-3.204	0.530
1057.500	617.295	80.004	19.994	103.918	20.093	-3.068	0.540
1058.000	617.572	80.005	19.994	103.917	20.091	-2.900	0.521
1058.500	617.800	80.003	19.993	103.918	20.090	-2.835	0.515
1059.000	618.086	80.004	19.994	103.918	20.092	-2.966	0.509
1059.500	618.380	80.005	19.994	103.918	20.091	-2.918	0.547
1060.000	618.583	80.004	19.992	103.918	20.093	-3.065	0.539
1060.500	618.828	80.005	19.993	103.921	20.096	-3.235	0.473
1061.000	619.088	80.003	19.995	103.927	20.091	-2.912	0.476
1061.501	619.345	80.002	19.994	103.932	20.095	-3.188	0.511
1062.001	619.642	80.003	19.994	103.932	20.093	-3.085	0.535
1062.500	619.886	80.003	19.994	103.933	20.090	-2.843	0.548
1063.000	620.146	80.003	19.994	103.931	20.090	-2.832	0.523
1063.500	620.405	80.003	19.993	103.926	20.093	-3.071	0.511
1064.000	620.684	80.002	19.994	103.920	20.092	-3.001	0.528
1064.500	620.931	80.004	19.994	103.924	20.091	-2.929	0.532
1065.000	621.174	80.002	19.994	103.926	20.092	-2.993	0.508
1065.500	621.454	80.003	19.994	103.925	20.098	-3.380	0.506
1066.000	621.705	80.004	19.994	103.925	20.090	-2.885	0.527
1066.500	621.885	80.003	19.993	103.927	20.094	-3.149	0.481
1067.000	622.208	80.004	19.994	103.926	20.092	-2.958	0.467
1067.501	622.407	80.004	19.994	103.923	20.092	-2.960	0.513
1068.001	622.708	80.003	19.994	103.923	20.095	-3.195	0.511
1068.501	622.957	80.004	19.994	103.920	20.085	-2.545	0.525
1069.001	623.207	80.003	19.993	103.921	20.098	-3.382	0.524
1069.500	623.487	80.003	19.995	103.918	20.107	-3.976	0.515
1070.001	623.728	80.004	19.994	103.919	20.109	-4.139	0.526
1070.501	623.970	80.002	19.994	103.919	20.110	-4.183	0.502
1071.000	624.270	80.004	19.994	103.919	20.088	-2.700	0.512
1071.501	624.468	80.004	19.994	103.916	20.092	-2.975	0.520
1072.001	624.743	80.003	19.993	103.920	20.092	-3.021	0.486
1072.500	624.931	80.003	19.993	103.922	20.101	-3.563	0.468
1073.000	625.272	80.002	19.994	103.928	20.093	-3.079	0.496
1073.500	625.492	80.004	19.994	103.934	20.096	-3.246	0.545
1074.000	625.777	80.003	19.994	103.938	20.096	-3.283	0.533
1074.501	626.044	80.003	19.994	103.934	20.092	-3.024	0.528
1075.001	626.316	80.003	19.994	103.931	20.093	-3.077	0.545
1075.500	626.583	80.004	19.994	103.927	20.093	-3.028	0.539
1076.001	626.741	80.003	19.994	103.926	20.094	-3.122	0.482
1076.501	627.052	80.004	19.994	103.925	20.098	-3.362	0.447
1077.000	627.200	80.004	19.994	103.925	20.094	-3.116	0.464
1077.500	627.667	80.003	19.995	103.926	20.098	-3.380	0.537
1078.000	627.781	80.004	19.993	103.924	20.095	-3.175	0.598
1078.500	628.090	80.003	19.994	103.919	20.093	-3.055	0.502
1079.000	628.208	80.005	19.994	103.916	20.094	-3.155	0.425
1079.500	628.638	80.004	19.994	103.916	20.095	-3.210	0.488
1080.000	628.921	80.005	19.994	103.917	20.095	-3.170	0.631
1080.500	629.184	80.006	19.995	103.917	20.091	-2.924	0.630
1081.001	629.254	80.005	19.993	103.920	20.093	-3.030	0.439
1081.501	629.561	80.005	19.994	103.922	20.098	-3.362	0.355
1082.000	629.820	80.004	19.993	103.923	20.095	-3.221	0.471
1082.500	630.156	80.005	19.993	103.924	20.100	-3.532	0.580
1083.000	631.238	80.005	19.994	103.923	20.094	-3.156	1.007
1083.500	631.495	80.007	19.994	103.919	20.096	-3.292	1.379
1084.000	631.197	80.004	19.994	103.917	20.094	-3.109	0.649
1084.500	631.742	80.006	19.992	103.915	20.096	-3.230	0.103
1085.000	631.658	80.006	19.993	103.912	20.097	-3.327	0.354
1085.501	631.287	80.004	19.993	103.912	20.096	-3.270	0.004
1086.001	631.989	80.005	19.993	103.919	20.096	-3.268	-0.062
1086.501	632.507	80.006	19.993	103.925	20.095	-3.171	0.775
1087.001	632.267	80.005	19.994	103.930	20.094	-3.109	0.749
1087.501	632.788	80.004	19.993	103.931	20.094	-3.104	0.280
1088.001	633.018	80.005	19.993	103.931	20.095	-3.174	0.516
1088.501	633.283	80.005	19.994	103.925	20.094	-3.143	0.623
1089.000	633.501	80.005	19.994	103.922	20.090	-2.878	0.489
1089.500	633.692	80.005	19.994	103.921	20.092	-2.986	0.446
1090.001	634.057	80.005	19.993	103.926	20.092	-2.981	0.482
1090.501	634.338	80.004	19.994	103.928	20.092	-2.960	0.601
1091.000	634.448	80.005	19.994	103.931	20.093	-3.079	0.519
1091.500	634.998	80.005	19.993	103.933	20.092	-2.977	0.526
1092.001	634.957	80.005	19.993	103.930	20.095	-3.206	0.585
1092.501	635.372	80.005	19.994	103.930	20.090	-2.872	0.441
1093.000	635.652	80.005	19.992	103.929	20.092	-2.973	0.534
1093.500	635.843	80.004	19.993	103.925	20.090	-2.841	0.583
1094.000	636.123	80.003	19.993	103.922	20.095	-3.214	0.471
1094.501	636.304	80.005	19.993	103.921	20.093	-3.082	0.466
1095.001	636.644	80.004	19.994	103.916	20.091	-2.948	0.490
1095.500	636.889	80.005	19.994	103.916	20.096	-3.283	0.553
1096.000	637.165	80.005	19.993	103.918	20.093	-3.032	0.554
1096.500	637.484	80.006	19.993	103.921	20.095	-3.175	0.558
1097.000	637.636	80.005	19.994	103.924	20.093	-3.034	0.533
1097.500	637.995	80.005	19.994	103.931	20.095	-3.175	0.491
1098.000	638.201	80.005	19.994	103.937	20.093	-3.074	0.538
1098.500	638.517	80.005	19.993	103.943	20.095	-3.218	0.543
1099.000	638.753	80.005	19.992	103.948	20.094	-3.115	0.537
1099.500	638.978	80.005	19.993	103.949	20.096	-3.252	0.507
1100.000	639.243	80.005	19.993	103.946	20.095	-3.197	0.475
1100.500	639.538	80.004	19.994	103.941	20.092	-2.975	0.524
1101.000	639.722	80.006	19.993	103.934	20.096	-3.230	0.520
1101.500	640.019	80.005	19.993	103.927	20.093	-3.067	0.480
1102.000	640.330	80.005	19.993	103.923	20.091	-2.898	0.544
1102.500	640.527	80.005	19.993	103.922	20.088	-2.724	0.558
1103.000	640.784	80.006	19.993	103.927	20.094	-3.115	0.481
1103.500	641.024	80.004	19.993	103.933	20.093	-3.032	0.476
1104.000	641.294	80.006	19.994	103.935	20.093	-3.067	0.503
1104.500	641.566	80.004	19.994	103.937	20.091	-2.955	0.525
1105.000	641.868	80.006	19.994	103.936	20.091	-2.933	0.558
1105.500	642.063	80.005	19.993	103.933	20.091	-2.951	0.536
1106.000	642.343	80.005	19.993	103.932	20.093	-3.051	0.486
1106.500	642.569	80.007	19.994	103.931	20.094	-3.098	0.490
1107.000	642.855	80.004	19.995	103.933	20.091	-2.902	0.509
1107.500	643.087	80.005	19.994	103.939	20.098	-3.414	0.515
1108.001	643.382	80.004	19.995	103.941	20.095	-3.214	0.522
1108.501	643.705	80.004	19.995	103.939	20.082	-2.314	0.572
1109.000	643.873	80.006	19.994	103.943	20.084	-2.464	0.555
1109.500	644.168	80.005	19.994	103.945	20.099	-3.489	0.478
1110.000	644.386	80.003	19.994	103.945	20.086	-2.561	0.488
1110.500	644.691	80.004	19.993	103.941	20.098	-3.368	0.518
1111.001	644.932	80.004	19.995	103.942	20.095	-3.227	0.534
1111.501	645.206	80.003	19.994	103.943	20.094	-3.111	0.530
1112.000	645.446	80.005	19.994	103.940	20.091	-2.901	0.514
1112.500	645.703	80.003	19.994	103.935	20.094	-3.134	0.505
1113.001	645.900	80.004	19.995	103.938	20.092	-3.009	0.476
1113.501	646.252	80.003	19.995	103.939	20.092	-3.025	0.502
1114.000	646.453	80.002	19.993	103.940	20.093	-3.077	0.550
1114.500	646.691	80.002	19.994	103.941	20.094	-3.113	0.496
1115.001	647.042	80.001	19.995	103.944	20.095	-3.179	0.515
1115.501	647.214	80.003	19.994	103.943	20.093	-3.029	0.556
1116.000	647.479	80.004	19.994	103.940	20.092	-3.009	0.480
1116.500	647.718	80.002	19.994	103.939	20.093	-3.091	0.471
1117.000	648.014	80.003	19.994	103.942	20.091	-2.955	0.520
1117.500	648.279	80.003	19.994	103.945	20.088	-2.737	0.547
1118.000	648.601	80.003	19.994	103.948	20.090	-2.875	0.574
1118.500	648.728	80.001	19.995	103.954	20.092	-2.992	0.519
1119.000	649.129	80.003	19.994	103.957	20.091	-2.955	0.489
1119.500	649.260	80.002	19.995	103.957	20.091	-2.941	0.530
1120.001	649.592	80.001	19.992	103.957	20.088	-2.737	0.497
1120.501	649.891	80.002	19.995	103.956	20.091	-2.957	0.547
1121.000	649.981	80.003	19.995	103.955	20.092	-2.959	0.510
1121.500	650.602	80.002	19.996	103.955	20.094	-3.102	0.550
1122.000	650.892	80.002	19.995	103.955	20.093	-3.062	0.811
1122.500	650.627	80.002	19.995	103.954	20.092	-2.970	0.468
1123.000	650.310	80.002	19.995	103.956	20.093	-3.053	-0.279
1123.500	651.122	80.000	19.995	103.956	20.090	-2.873	-0.043
1124.000	651.302	80.003	19.993	103.956	20.092	-3.016	0.744
1124.500	651.922	80.003	19.994	103.956	20.095	-3.165	0.896
1125.000	652.159	80.003	19.995	103.955	20.092	-2.985	0.828
1125.500	652.410	80.002	19.995	103.953	20.091	-2.917	0.672
1126.000	652.616	80.003	19.995	103.952	20.092	-2.972	0.472
1126.500	652.980	80.003	19.995	103.950	20.091	-2.948	0.514
1127.000	653.244	80.003	19.995	103.948	20.094	-3.128	0.599
1127.500	653.386	80.003	19.994	103.948	20.093	-3.064	0.517
1128.000	653.728	80.003	19.993	103.949	20.091	-2.917	0.445
1128.501	653.946	80.003	19.994	103.951	20.092	-3.011	0.522
1129.001	654.199	80.004	19.995	103.951	20.088	-2.750	0.516
1129.500	654.499	80.004	19.994	103.951	20.090	-2.840	0.512
1130.000	654.723	80.003	19.993	103.951	20.093	-3.079	0.539
1130.500	654.986	80.003	19.994	103.950	20.095	-3.203	0.506
1131.000	655.244	80.003	19.995	103.951	20.091	-2.906	0.504
1131.500	655.423	80.003	19.994	103.951	20.090	-2.891	0.479
1132.000	655.725	80.004	19.995	103.953	20.092	-2.970	0.459
1132.500	656.025	80.003	19.994	103.953	20.091	-2.911	0.542
1133.000	656.270	80.004	19.995	103.953	20.092	-2.961	0.573
1133.500	656.484	80.004	19.993	103.952	20.090	-2.873	0.502
1134.000	656.783	80.004	19.995	103.952	20.088	-2.739	0.486
1134.500	657.015	80.004	19.994	103.952	20.092	-2.980	0.522
1135.000	657.261	80.002	19.995	103.952	20.088	-2.756	0.505
1135.501	657.433	80.002	19.995	103.952	20.087	-2.677	0.448
1136.001	657.761	80.004	19.995	103.952	20.089	-2.780	0.459
1136.500	658.031	80.003	19.995	103.952	20.089	-2.765	0.549
1137.000	658.267	80.003	19.995	103.952	20.091	-2.903	0.552
1137.500	658.571	80.003	19.995	103.951	20.089	-2.792	0.523
1138.000	658.780	80.002	19.996	103.950	20.089	-2.809	0.527
1138.500	659.026	80.003	19.995	103.950	20.090	-2.870	0.483
1139.000	659.315	80.002	19.995	103.952	20.088	-2.725	0.495
1139.500	659.581	80.003	19.994	103.956	20.089	-2.816	0.546
1140.000	659.748	80.003	19.993	103.957	20.086	-2.589	0.494
1140.500	660.036	80.003	19.995	103.958	20.090	-2.835	0.443
1141.001	660.298	80.003	19.995	103.959	20.089	-2.765	0.502
1141.501	660.542	80.004	19.995	103.957	20.088	-2.721	0.528
1142.000	660.799	80.001	19.995	103.953	20.089	-2.793	0.504
1142.500	661.080	80.003	19.995	103.952	20.088	-2.730	0.520
1143.000	661.280	80.003	19.994	103.953	20.087	-2.661	0.509
1143.500	661.553	80.003	19.994	103.954	20.089	-2.811	0.477
1144.000	661.781	80.002	19.994	103.959	20.089	-2.796	0.487
1144.500	662.069	80.004	19.994	103.962	20.088	-2.712	0.508
1145.000	662.332	80.003	19.994	103.963	20.089	-2.813	0.534
1145.501	662.575	80.003	19.995	103.962	20.089	-2.804	0.529
1146.001	662.809	80.004	19.994	103.963	20.087	-2.631	0.491
1146.501	663.028	80.003	19.993	103.959	20.089	-2.772	0.465
1147.001	663.330	80.003	19.993	103.959	20.086	-2.596	0.487
1147.500	663.575	80.003	19.994	103.960	20.090	-2.826	0.534
1148.000	663.769	80.003	19.993	103.961	20.088	-2.740	0.493
1148.500	664.032	80.003	19.994	103.962	20.090	-2.833	0.448
1149.001	664.276	80.003	19.993	103.963	20.087	-2.663	0.482
1149.501	664.525	80.004	19.993	103.963	20.087	-2.644	0.500
1150.000	664.790	80.003	19.993	103.961	20.086	-2.615	0.503
1150.500	665.018	80.002	19.994	103.960	20.086	-2.611	0.503
1151.000	665.265	80.003	19.994	103.962	20.088	-2.732	0.484
1151.500	665.489	80.003	19.994	103.966	20.087	-2.670	0.473
1152.000	665.772	80.004	19.995	103.969	20.085	-2.532	0.489
1152.500	666.041	80.004	19.994	103.973	20.087	-2.679	0.529
1153.000	666.293	80.004	19.994	103.976	20.089	-2.775	0.537
1153.500	666.534	80.003	19.994	103.974	20.088	-2.709	0.507
1154.000	666.806	80.004	19.994	103.972	20.087	-2.645	0.503
1154.500	667.014	80.004	19.993	103.972	20.086	-2.568	0.496
1155.000	667.265	80.004	19.994	103.971	20.089	-2.784	0.470
1155.500	667.516	80.004	19.994	103.971	20.087	-2.626	0.480
1156.000	667.750	80.005	19.994	103.969	20.085	-2.551	0.494
1156.500	668.011	80.004	19.994	103.967	20.090	-2.848	0.490
1157.000	668.249	80.003	19.993	103.966	20.088	-2.729	0.497
1157.500	668.522	80.004	19.994	103.966	20.089	-2.787	0.504
1158.000	668.761	80.005	19.994	103.967	20.086	-2.562	0.511
1158.500	669.016	80.004	19.995	103.971	20.090	-2.877	0.504
1159.000	669.269	80.006	19.994	103.974	20.087	-2.655	0.502
1159.501	669.496	80.005	19.993	103.976	20.086	-2.560	0.494
1160.001	669.762	80.005	19.993	103.978	20.089	-2.780	0.486
1160.501	669.978	80.006	19.994	103.978	20.087	-2.647	0.488
1161.001	670.258	80.004	19.993	103.978	20.083	-2.364	0.489
1161.501	670.500	80.004	19.994	103.976	20.086	-2.612	0.508
1162.001	670.752	80.005	19.994	103.973	20.086	-2.580	0.508
1162.500	670.994	80.004	19.994	103.973	20.087	-2.674	0.495
1163.000	671.239	80.005	19.993	103.976	20.084	-2.430	0.491
1163.500	671.503	80.005	19.993	103.979	20.089	-2.766	0.498
1164.000	671.731	80.004	19.994	103.983	20.087	-2.676	0.500
1164.501	672.003	80.005	19.993	103.987	20.084	-2.467	0.496
1165.001	672.227	80.004	19.994	103.990	20.085	-2.502	0.498
1165.500	672.507	80.003	19.994	103.992	20.086	-2.566	0.500
1166.000	672.770	80.004	19.994	103.993	20.085	-2.549	0.524
1166.500	673.017	80.004	19.994	103.994	20.088	-2.720	0.526
1167.000	673.272	80.005	19.993	103.990	20.086	-2.592	0.506
1167.500	673.509	80.005	19.994	103.984	20.085	-2.514	0.497
1168.000	673.747	80.005	19.993	103.982	20.087	-2.641	0.484
1168.500	674.005	80.005	19.994	103.981	20.086	-2.590	0.486
1169.000	674.265	80.003	19.993	103.977	20.084	-2.483	0.507
1169.500	674.558	80.004	19.994	103.980	20.086	-2.608	0.536
1170.000	674.795	80.005	19.993	103.986	20.087	-2.682	0.542
1170.500	675.035	80.004	19.993	103.988	20.087	-2.663	0.504
1171.001	675.330	80.005	19.993	103.991	20.085	-2.529	0.506
1171.501	675.580	80.004	19.994	103.995	20.084	-2.489	0.540
1172.000	675.818	80.004	19.994	103.995	20.084	-2.482	0.517
1172.501	676.079	80.005	19.993	103.995	20.083	-2.408	0.493
1173.001	676.322	80.005	19.995	103.995	20.085	-2.528	0.501
1173.500	676.600	80.005	19.994	103.995	20.083	-2.386	0.512
1174.000	676.829	80.004	19.993	103.995	20.082	-2.337	0.514
1174.500	677.082	80.004	19.994	103.995	20.086	-2.590	0.495
1175.000	677.306	80.005	19.994	103.995	20.084	-2.465	0.479
1175.500	677.558	80.005	19.992	103.995	20.084	-2.467	0.476
1176.000	677.843	80.004	19.993	103.994	20.085	-2.511	0.507
1176.500	678.081	80.004	19.993	103.994	20.084	-2.449	0.530
1177.001	678.349	80.004	19.992	103.994	20.084	-2.473	0.514
1177.501	678.590	80.003	19.993	103.996	20.085	-2.537	0.508
1178.001	678.897	80.005	19.993	103.997	20.087	-2.656	0.529
1178.501	679.099	80.006	19.993	103.997	20.090	-2.827	0.528
1179.001	679.365	80.005	19.992	103.997	20.083	-2.377	0.489
1179.500	679.587	80.006	19.994	103.998	20.081	-2.227	0.478
1180.001	679.810	80.005	19.991	104.000	20.088	-2.728	0.466
1180.501	680.110	80.005	19.994	104.000	20.086	-2.577	0.484
1181.000	680.395	80.005	19.993	104.002	20.089	-2.818	0.554
1181.500	680.656	80.005	19.994	104.005	20.085	-2.491	0.565
1182.000	680.898	80.007	19.994	104.006	20.087	-2.632	0.525
1182.501	681.149	80.006	19.994	104.007	20.084	-2.469	0.498
1183.001	681.401	80.007	19.993	104.011	20.088	-2.737	0.497
1183.500	681.641	80.006	19.994	104.011	20.086	-2.618	0.497
1184.001	681.925	80.006	19.993	104.008	20.086	-2.581	0.508
1184.501	682.134	80.007	19.993	104.008	20.085	-2.544	0.509
1185.001	682.404	80.006	19.993	104.005	20.087	-2.665	0.486
1185.500	682.654	80.007	19.992	104.002	20.089	-2.774	0.499
1186.000	682.907	80.008	19.993	104.007	20.088	-2.693	0.511
1186.500	683.163	80.007	19.993	104.007	20.087	-2.645	0.506
1187.000	683.407	80.007	19.992	104.008	20.087	-2.665	0.505
1187.500	683.638	80.008	19.993	104.013	20.086	-2.563	0.488
1188.000	683.908	80.009	19.994	104.016	20.087	-2.651	0.488
1188.500	684.193	80.006	19.993	104.012	20.088	-2.703	0.528
1189.000	684.433	80.007	19.993	104.010	20.088	-2.741	0.540
1189.500	684.660	80.006	19.994	104.010	20.086	-2.616	0.496
1190.000	684.941	80.006	19.994	104.010	20.085	-2.524	0.488
1190.500	685.167	80.007	19.993	104.008	20.087	-2.673	0.507
1191.000	685.457	80.005	19.992	104.008	20.087	-2.675	0.512
1191.500	685.677	80.006	19.994	104.009	20.084	-2.489	0.513
1192.000	685.992	80.005	19.993	104.009	20.088	-2.713	0.523
1192.500	686.190	80.005	19.994	104.008	20.084	-2.460	0.524
1193.000	686.303	80.005	19.993	104.009	20.086	-2.561	0.412
1193.501	686.454	80.005	19.993	104.015	20.085	-2.517	0.288
1194.001	686.727	80.003	19.994	104.021	20.085	-2.491	0.344
1194.500	687.192	80.004	19.994	104.023	20.086	-2.568	0.581
1195.000	687.458	80.004	19.993	104.024	20.087	-2.686	0.735
1195.500	687.687	80.004	19.994	104.021	20.087	-2.646	0.613
1196.000	687.985	80.005	19.993	104.018	20.087	-2.627	0.510
1196.500	688.213	80.003	19.994	104.012	20.087	-2.679	0.526
1197.000	688.497	80.004	19.994	104.010	20.086	-2.607	0.519
1197.501	688.699	80.003	19.994	104.011	20.089	-2.813	0.500
1198.001	689.002	80.004	19.994	104.017	20.089	-2.765	0.496
1198.501	689.241	80.003	19.995	104.020	20.087	-2.677	0.523
1199.001	689.490	80.004	19.994	104.027	20.087	-2.633	0.515
1199.500	689.744	80.005	19.993	104.031	20.087	-2.640	0.496
1200.000	689.965	80.003	19.995	104.031	20.088	-2.714	0.489
1200.500	690.210	80.004	19.994	104.029	20.086	-2.603	0.470
1201.000	690.444	80.003	19.994	104.028	20.089	-2.809	0.473
1201.500	690.729	80.003	19.994	104.027	20.086	-2.613	0.499
1202.000	690.980	80.004	19.993	104.026	20.089	-2.793	0.527
1202.500	691.205	80.003	19.993	104.026	20.087	-2.673	0.507
1203.001	691.467	80.003	19.994	104.029	20.086	-2.569	0.482
1203.501	691.726	80.004	19.995	104.030	20.089	-2.819	0.504
1204.000	691.954	80.005	19.993	104.029	20.084	-2.448	0.504
1204.500	692.169	80.003	19.994	104.030	20.087	-2.628	0.465
1205.000	692.421	80.004	19.994	104.030	20.086	-2.589	0.455
1205.500	692.658	80.004	19.996	104.031	20.083	-2.411	0.478
1206.000	692.950	80.005	19.995	104.034	20.082	-2.290	0.509
1206.500	693.170	80.003	19.994	104.037	20.087	-2.674	0.521
1207.000	693.438	80.003	19.994	104.037	20.085	-2.494	0.500
1207.500	693.674	80.004	19.994	104.036	20.084	-2.442	0.496
1208.000	693.951	80.003	19.994	104.036	20.085	-2.514	0.509
1208.500	694.170	80.004	19.994	104.033	20.086	-2.560	0.505
1209.000	694.453	80.004	19.993	104.033	20.088	-2.711	0.499
1209.500	694.645	80.004	19.995	104.033	20.084	-2.490	0.488
1210.000	694.960	80.004	19.994	104.033	20.084	-2.448	0.491
1210.500	695.199	80.004	19.994	104.032	20.085	-2.510	0.530
1211.000	695.414	80.005	19.994	104.033	20.082	-2.349	0.504
1211.500	695.639	80.005	19.993	104.035	20.083	-2.404	0.448
1212.000	695.974	80.003	19.994	104.038	20.086	-2.599	0.500
1212.500	696.252	80.005	19.994	104.038	20.084	-2.428	0.586
1213.000	696.428	80.005	19.995	104.038	20.084	-2.432	0.534
1213.500	696.703	80.004	19.994	104.040	20.085	-2.502	0.452
1214.000	696.948	80.005	19.994	104.045	20.083	-2.362	0.485
1214.500	697.201	80.004	19.993	104.046	20.083	-2.406	0.509
1215.000	697.410	80.005	19.995	104.050	20.086	-2.577	0.480
1215.500	697.668	80.005	19.994	104.054	20.081	-2.257	0.465
1216.000	697.940	80.004	19.993	104.058	20.085	-2.523	0.499
1216.500	698.144	80.004	19.994	104.056	20.082	-2.310	0.503
1217.000	698.425	80.004	19.994	104.056	20.084	-2.448	0.480
1217.500	698.652	80.004	19.995	104.053	20.084	-2.446	0.496
1218.000	698.879	80.004	19.994	104.055	20.084	-2.459	0.481
1218.500	699.130	80.003	19.996	104.053	20.079	-2.130	0.466
1219.000	699.366	80.005	19.994	104.053	20.081	-2.226	0.482
1219.500	699.621	80.005	19.994	104.057	20.080	-2.219	0.489
1220.000	699.907	80.003	19.996	104.063	20.081	-2.283	0.516
1220.500	700.113	80.004	19.994	104.064	20.077	-2.002	0.517
1221.000	700.362	80.003	19.995	104.063	20.082	-2.323	0.474
1221.500	700.625	80.002	19.994	104.059	20.080	-2.178	0.484
1222.000	700.869	80.004	19.995	104.055	20.082	-2.316	0.510
1222.500	701.122	80.004	19.995	104.056	20.082	-2.307	0.501
1223.000	701.349	80.004	19.995	104.057	20.084	-2.476	0.488
1223.500	701.601	80.003	19.995	104.060	20.082	-2.298	0.480
1224.000	701.852	80.002	19.994	104.067	20.082	-2.320	0.491
1224.500	702.104	80.003	19.995	104.071	20.080	-2.199	0.503
1225.000	702.346	80.002	19.996	104.071	20.083	-2.391	0.498
1225.500	702.546	80.002	19.995	104.068	20.079	-2.131	0.468
1226.000	702.848	80.003	19.994	104.069	20.081	-2.250	0.472
1226.500	703.041	80.001	19.993	104.066	20.082	-2.342	0.498
1227.000	703.327	80.002	19.994	104.062	20.079	-2.148	0.487
1227.500	703.566	80.003	19.995	104.061	20.083	-2.385	0.502
1228.000	703.801	80.002	19.995	104.062	20.081	-2.251	0.500
1228.500	704.052	80.002	19.995	104.062	20.082	-2.333	0.480
1229.000	704.307	80.003	19.995	104.064	20.081	-2.225	0.496
1229.500	704.558	80.004	19.994	104.069	20.083	-2.385	0.506
1230.000	704.781	80.004	19.995	104.070	20.082	-2.331	0.490
1230.500	705.031	80.003	19.995	104.072	20.080	-2.181	0.474
1231.000	705.309	80.003	19.995	104.072	20.081	-2.225	0.501
1231.500	705.549	80.004	19.995	104.073	20.082	-2.291	0.523
1232.000	705.773	80.003	19.995	104.074	20.079	-2.124	0.491
1232.501	706.021	80.004	19.995	104.076	20.077	-1.971	0.468
1233.001	706.233	80.003	19.995	104.076	20.082	-2.326	0.466
1233.500	706.505	80.003	19.995	104.077	20.082	-2.352	0.472
1234.000	706.764	80.004	19.995	104.078	20.083	-2.374	0.508
1234.500	707.026	80.003	19.994	104.077	20.080	-2.207	0.526
1235.000	707.235	80.005	19.995	104.076	20.083	-2.363	0.496
1235.500	707.491	80.005	19.996	104.076	20.083	-2.370	0.467
1236.000	707.710	80.004	19.994	104.076	20.082	-2.337	0.470
1236.500	707.963	80.004	19.995	104.077	20.077	-2.010	0.474
1237.000	708.244	80.004	19.994	104.083	20.083	-2.390	0.503
1237.500	708.466	80.005	19.994	104.090	20.081	-2.275	0.519
1238.000	708.704	80.004	19.994	104.096	20.081	-2.262	0.482
1238.500	708.946	80.004	19.994	104.102	20.080	-2.196	0.470
1239.000	709.194	80.004	19.994	104.106	20.079	-2.130	0.485
1239.500	709.460	80.004	19.994	104.103	20.081	-2.249	0.501
1240.000	709.693	80.004	19.992	104.098	20.079	-2.126	0.506
1240.500	709.966	80.005	19.994	104.098	20.080	-2.170	0.503
1241.000	710.180	80.006	19.994	104.099	20.080	-2.205	0.497
1241.500	710.467	80.005	19.994	104.102	20.080	-2.161	0.494
1242.000	710.679	80.005	19.993	104.105	20.080	-2.181	0.500
1242.500	710.943	80.004	19.995	104.108	20.080	-2.198	0.488
1243.000	711.177	80.005	19.992	104.106	20.079	-2.146	0.487
1243.500	711.417	80.004	19.993	104.105	20.080	-2.190	0.486
1244.000	711.678	80.005	19.994	104.105	20.081	-2.231	0.488
1244.500	711.919	80.005	19.994	104.106	20.079	-2.126	0.501
1245.000	712.160	80.004	19.993	104.108	20.079	-2.132	0.492
1245.501	712.389	80.004	19.994	104.110	20.078	-2.038	0.476
1246.001	712.656	80.004	19.994	104.111	20.075	-1.829	0.483
1246.500	712.874	80.005	19.993	104.111	20.078	-2.068	0.490
1247.000	713.162	80.004	19.993	104.111	20.075	-1.867	0.496
1247.501	713.354	80.005	19.992	104.112	20.076	-1.943	0.493
1248.001	713.663	80.004	19.994	104.111	20.078	-2.067	0.490
1248.501	713.934	80.005	19.992	104.111	20.077	-1.994	0.541
1249.001	714.203	80.005	19.994	104.111	20.075	-1.884	0.560
1249.500	714.398	80.005	19.993	104.110	20.074	-1.794	0.502
1250.000	714.633	80.005	19.994	104.111	20.073	-1.742	0.447
1250.500	714.857	80.006	19.993	104.113	20.075	-1.864	0.444
1251.000	715.111	80.004	19.994	104.113	20.073	-1.733	0.469
1251.500	715.409	80.005	19.994	104.113	20.076	-1.897	0.515
1252.000	715.643	80.005	19.993	104.114	20.073	-1.733	0.542
1252.500	715.893	80.005	19.994	104.113	20.076	-1.941	0.508
1253.000	716.210	80.005	19.994	104.113	20.071	-1.614	0.525
1253.500	716.397	80.005	19.994	104.113	20.073	-1.752	0.535
1254.000	716.673	80.005	19.994	104.112	20.070	-1.515	0.483
1254.500	716.927	80.004	19.993	104.113	20.078	-2.053	0.497
1255.000	717.199	80.005	19.994	104.114	20.073	-1.722	0.528
1255.500	717.454	80.005	19.994	104.121	20.071	-1.573	0.527
1256.000	717.686	80.005	19.994	104.128	20.070	-1.489	0.507
1256.500	717.916	80.005	19.994	104.135	20.071	-1.570	0.474
1257.000	718.167	80.006	19.993	104.138	20.072	-1.675	0.472
1257.500	718.457	80.004	19.993	104.140	20.072	-1.630	0.512
1258.000	718.632	80.006	19.994	104.138	20.076	-1.939	0.503
1258.500	718.977	80.006	19.993	104.133	20.073	-1.708	0.492
1259.000	719.219	80.005	19.993	104.133	20.074	-1.761	0.553
1259.500	719.485	80.007	19.995	104.136	20.073	-1.697	0.547
1260.000	719.699	80.006	19.993	104.138	20.068	-1.415	0.494
1260.500	719.960	80.006	19.993	104.133	20.072	-1.649	0.478
1261.000	720.217	80.007	19.993	104.137	20.070	-1.535	0.496
1261.500	720.488	80.006	19.994	104.137	20.073	-1.724	0.522
1262.000	720.740	80.006	19.994	104.137	20.069	-1.482	0.525
1262.500	720.994	80.006	19.993	104.138	20.070	-1.537	0.515
1263.000	721.230	80.005	19.994	104.146	20.071	-1.603	0.498
1263.500	721.492	80.005	19.994	104.147	20.072	-1.684	0.494
1264.000	721.750	80.007	19.993	104.147	20.069	-1.445	0.509
1264.500	722.016	80.005	19.993	104.147	20.067	-1.327	0.522
1265.000	722.276	80.006	19.994	104.147	20.070	-1.539	0.525
1265.501	722.537	80.007	19.993	104.147	20.069	-1.484	0.523
1266.001	722.814	80.006	19.993	104.148	20.069	-1.460	0.530
1266.500	723.077	80.006	19.993	104.152	20.070	-1.497	0.539
1267.000	723.314	80.005	19.994	104.153	20.069	-1.476	0.520
1267.500	723.633	80.006	19.994	104.154	20.070	-1.524	0.528
1268.001	723.844	80.007	19.994	104.153	20.069	-1.471	0.543
1268.501	724.137	80.006	19.994	104.153	20.068	-1.370	0.517
1269.000	724.365	80.006	19.995	104.150	20.070	-1.489	0.513
1269.500	724.625	80.005	19.994	104.150	20.069	-1.425	0.505
1270.000	724.915	80.005	19.994	104.150	20.067	-1.320	0.519
1270.500	725.165	80.005	19.994	104.150	20.069	-1.445	0.545
1271.000	725.407	80.006	19.994	104.151	20.068	-1.359	0.516
1271.500	725.691	80.006	19.993	104.155	20.067	-1.339	0.509
1272.000	725.947	80.005	19.994	104.160	20.064	-1.136	0.533
1272.500	726.212	80.005	19.994	104.163	20.063	-1.081	0.530
1273.000	726.466	80.005	19.993	104.163	20.067	-1.306	0.520
1273.500	726.720	80.004	19.994	104.166	20.064	-1.136	0.514
1274.000	726.961	80.004	19.992	104.168	20.066	-1.280	0.501
1274.501	727.225	80.005	19.994	104.171	20.063	-1.079	0.500
1275.001	727.514	80.004	19.994	104.175	20.065	-1.201	0.529
1275.500	727.752	80.005	19.993	104.183	20.063	-1.061	0.540
1276.001	728.024	80.003	19.994	104.186	20.062	-0.969	0.519
1276.501	728.290	80.004	19.994	104.186	20.065	-1.210	0.524
1277.000	728.540	80.004	19.995	104.186	20.063	-1.078	0.527
1277.500	728.812	80.004	19.995	104.186	20.063	-1.076	0.519
1278.000	729.090	80.005	19.994	104.187	20.066	-1.249	0.536
1278.500	729.341	80.004	19.994	104.189	20.063	-1.054	0.539
1279.000	729.643	80.005	19.993	104.189	20.065	-1.192	0.541
1279.500	729.893	80.003	19.993	104.189	20.063	-1.015	0.553
1280.001	730.129	80.004	19.994	104.189	20.062	-0.997	0.519
1280.501	730.416	80.003	19.994	104.188	20.063	-1.082	0.505
1281.001	730.677	80.003	19.994	104.189	20.061	-0.887	0.536
1281.500	730.914	80.004	19.993	104.191	20.064	-1.146	0.523
1282.000	731.154	80.003	19.994	104.195	20.064	-1.102	0.487
1282.500	731.438	80.004	19.994	104.196	20.064	-1.085	0.500
1283.000	731.682	80.003	19.993	104.196	20.062	-0.997	0.526
1283.500	731.930	80.004	19.994	104.196	20.064	-1.083	0.510
1284.000	732.235	80.005	19.994	104.196	20.063	-1.056	0.522
1284.500	732.481	80.003	19.994	104.195	20.062	-1.006	0.552
1285.000	732.751	80.004	19.994	104.202	20.062	-0.980	0.534
1285.500	733.007	80.004	19.994	104.203	20.063	-1.052	0.521
1286.000	733.246	80.002	19.995	104.202	20.064	-1.148	0.510
1286.500	733.513	80.005	19.994	104.201	20.059	-0.782	0.501
1287.000	733.792	80.003	19.994	104.202	20.061	-0.892	0.526
1287.500	734.027	80.004	19.993	104.201	20.060	-0.879	0.530
1288.000	734.257	80.003	19.995	104.208	20.062	-0.997	0.489
1288.500	734.552	80.004	19.994	104.216	20.060	-0.846	0.495
1289.000	734.826	80.003	19.994	104.219	20.062	-0.949	0.547
1289.500	735.062	80.003	19.995	104.223	20.060	-0.879	0.540
1290.000	735.316	80.004	19.995	104.224	20.060	-0.865	0.500
1290.500	735.605	80.003	19.994	104.222	20.060	-0.820	0.516
1291.000	735.846	80.004	19.994	104.222	20.061	-0.929	0.536
1291.500	736.135	80.003	19.994	104.226	20.062	-0.955	0.530
1292.000	736.383	80.004	19.994	104.226	20.058	-0.732	0.533
1292.501	736.665	80.003	19.995	104.226	20.057	-0.644	0.534
1293.001	736.880	80.003	19.995	104.228	20.057	-0.653	0.514
1293.500	737.139	80.003	19.995	104.229	20.055	-0.543	0.485
1294.000	737.406	80.003	19.994	104.229	20.056	-0.596	0.500
1294.500	737.689	80.002	19.994	104.228	20.058	-0.679	0.538
1295.001	737.933	80.004	19.994	104.225	20.060	-0.824	0.538
1295.501	738.228	80.003	19.994	104.225	20.058	-0.684	0.532
1296.001	738.463	80.004	19.994	104.225	20.056	-0.594	0.534
1296.501	738.743	80.005	19.995	104.225	20.057	-0.638	0.523
1297.000	738.966	80.003	19.995	104.229	20.059	-0.778	0.509
1297.500	739.241	80.005	19.994	104.233	20.055	-0.480	0.500
1298.000	739.483	80.003	19.994	104.233	20.056	-0.591	0.507
1298.500	739.789	80.002	19.995	104.234	20.054	-0.449	0.532
1299.000	740.047	80.005	19.994	104.237	20.055	-0.537	0.556
1299.500	740.297	80.004	19.994	104.236	20.057	-0.672	0.536
1300.000	740.549	80.002	19.992	104.237	20.057	-0.637	0.505
1300.500	740.812	80.003	19.997	104.240	20.058	-0.697	0.509
1301.000	741.069	80.002	19.995	104.241	20.054	-0.467	0.517
1301.500	741.328	80.005	19.997	104.240	20.057	-0.631	0.518
1302.000	741.607	80.003	19.995	104.239	20.056	-0.570	0.527
1302.500	741.865	80.004	19.995	104.243	20.055	-0.477	0.538
1303.000	742.123	80.004	19.995	104.247	20.051	-0.254	0.527
1303.500	742.346	80.004	19.994	104.250	20.052	-0.298	0.498
1304.000	742.632	80.003	19.994	104.251	20.055	-0.541	0.495
1304.500	742.876	80.003	19.993	104.255	20.053	-0.403	0.519
1305.000	743.128	80.004	19.995	104.257	20.057	-0.664	0.513
1305.500	743.384	80.004	19.994	104.255	20.054	-0.464	0.502
